class,x1,y1,z1,v1,x2,y2,z2,v2,x3,y3,z3,v3,x4,y4,z4,v4,x5,y5,z5,v5,x6,y6,z6,v6,x7,y7,z7,v7,x8,y8,z8,v8,x9,y9,z9,v9,x10,y10,z10,v10,x11,y11,z11,v11,x12,y12,z12,v12,x13,y13,z13,v13,x14,y14,z14,v14,x15,y15,z15,v15,x16,y16,z16,v16,x17,y17,z17,v17,x18,y18,z18,v18,x19,y19,z19,v19,x20,y20,z20,v20,x21,y21,z21,v21,x22,y22,z22,v22,,accX,accY,accZ
Straight,0.4960880876,0.4385315478,-0.7244903445,0.9998019338,0.5232409835,0.3682381809,-0.7003661394,0.9993471503,0.5407640338,0.3691231906,-0.7000608444,0.9996142387,0.5582088828,0.3717526197,-0.7006182671,0.9993867874,0.4756597579,0.3688054085,-0.6946226954,0.9993108511,0.4587485194,0.3699916303,-0.6952646375,0.9995766282,0.4419990182,0.370827049,-0.6960437894,0.9993083477,0.5811939836,0.4111660719,-0.4362134039,0.9995695949,0.4276079535,0.406234026,-0.4096574783,0.9994447827,0.5274721384,0.5285190344,-0.6171306372,0.999599874,0.4672439694,0.5239764452,-0.6082397699,0.9995031357,0.7099329233,0.8355671167,-0.2641130686,0.9995564818,0.3206893802,0.8089501858,-0.2212726176,0.9993246794,0.7811160088,1.173653126,-0.1409455091,0.252794385,0.1942089498,1.060003519,-0.05956050009,0.2313967496,0.8021000028,1.689748168,-0.1401746422,0.07560709864,0.1428841054,1.612686157,-0.1650121212,0.04940186441,0.8548696637,1.848528385,-0.1339810491,0.08128398657,0.09729686379,1.728024602,-0.2151332349,0.06294622272,0.8254213333,1.854902983,-0.2151495963,0.1251467317,0.1321358085,1.744744062,-0.2665320933,0.09620527923,0.8060446978,1.810103297,-0.1707442999,0.1339918077,,0.5074966848,0.9406398548,-0.4079693972
Straight,0.4959086776,0.4386894703,-0.8291459084,0.9998143315,0.5221358538,0.3684524,-0.7970478535,0.999386549,0.5400575399,0.3693659008,-0.7966244817,0.999633193,0.5567091703,0.3718737364,-0.7971740961,0.9994228482,0.4750711322,0.3687814474,-0.791174531,0.9993538857,0.4586609304,0.369769454,-0.7916628122,0.9996003509,0.4419120252,0.3703348935,-0.7924082875,0.9993545413,0.5807425976,0.4111621976,-0.5001629591,0.999589622,0.426671803,0.4060664773,-0.4722222388,0.9994744658,0.5270119905,0.5277751088,-0.7126120329,0.9996217489,0.4665653706,0.5234304667,-0.7036405206,0.999532342,0.6972947121,0.8106848001,-0.2988304198,0.9995641708,0.3222150207,0.7938101888,-0.2818605304,0.9993630648,0.790620923,1.099834085,-0.1524445713,0.2681770623,0.1968039423,1.057252765,-0.07880682498,0.2514499426,0.898414433,1.589581847,-0.1653986871,0.07997625321,0.1229566783,1.592565298,-0.1705579609,0.05435138941,0.9485229254,1.690438032,-0.1641219109,0.08421847224,0.0827126652,1.730497599,-0.2218285352,0.0670343563,0.9205418825,1.700799942,-0.2528615296,0.1297045499,0.1187136024,1.752153993,-0.2980168164,0.1021926329,0.8956663013,1.672260761,-0.201618433,0.1384612471,,0.5220868262,0.9097991301,-0.4668282701
Straight,0.4942610264,0.4386868477,-0.6702668667,0.9998158216,0.5194026232,0.3684048057,-0.6428662539,0.9993937016,0.5378478169,0.3691847026,-0.6424096823,0.9996335506,0.553955555,0.3713361919,-0.642988801,0.9994325638,0.4732834697,0.3687625825,-0.6335242987,0.9993572235,0.4580166936,0.3696386218,-0.6340223551,0.9995980263,0.4411754012,0.3701510429,-0.6346331835,0.999358952,0.5798867345,0.4099266529,-0.3885912895,0.9995883703,0.4260409474,0.4060469866,-0.3458304107,0.9994681478,0.5256675482,0.527444303,-0.5710582733,0.9996263385,0.4654616416,0.5233703852,-0.5579084754,0.9995357394,0.6963800192,0.8061468601,-0.218419075,0.9995651245,0.322740972,0.7900449038,-0.1803434044,0.9993684888,0.7904567719,1.075785518,-0.0786646232,0.2673894167,0.1970429122,1.053920984,0.07592473924,0.2520522773,0.8738857508,1.603236675,-0.05099470168,0.07973634452,0.1254987866,1.595337987,0.05907646567,0.05267510563,0.9231950641,1.71404016,-0.03459607437,0.08323442936,0.08331031352,1.734975815,0.0195426736,0.06461812556,0.8949500918,1.729678154,-0.1192714423,0.1286422461,0.1205718517,1.766285181,-0.04499515519,0.0989433825,0.8724118471,1.695769548,-0.08220397681,0.1368255764,,0.517065629,0.9130988595,-0.3190474757
Straight,0.493108511,0.4391922057,-0.7965720892,0.9998213649,0.5173581839,0.3684810102,-0.7746660709,0.9994148612,0.5362818837,0.3691765964,-0.7741788626,0.9996404052,0.5520839691,0.3711287975,-0.7748242617,0.9994529486,0.4714938104,0.3693480194,-0.7611688972,0.9993769526,0.4571186602,0.3700533211,-0.7616406083,0.9996042848,0.4399579465,0.37061885,-0.7623143196,0.9993801117,0.5793440938,0.4087537527,-0.5103306174,0.9995945096,0.4256746769,0.4061848223,-0.4470450282,0.9994716644,0.524771452,0.5274317265,-0.6902857423,0.9996373057,0.4645728171,0.5239144564,-0.6713827848,0.9995485544,0.6948885918,0.7930173874,-0.3075397909,0.9995651841,0.32520926,0.7770974636,-0.2379561663,0.9993870258,0.7904426455,1.064992189,-0.1375457346,0.2731722891,0.1999535412,1.04088223,0.03026620485,0.261367023,0.8718183637,1.592718959,-0.1021348462,0.08210664243,0.1257014275,1.588379622,-0.005825143307,0.05357221514,0.9182981253,1.699561715,-0.08850121498,0.08487804979,0.08406242728,1.725994229,-0.04748075455,0.06498790532,0.8879743814,1.716646314,-0.1803736985,0.1316536367,0.1208737642,1.760422111,-0.1173891798,0.09988748282,0.8653818369,1.683838725,-0.1357157826,0.1393112689,,0.5157441077,0.907628841,-0.4115729722
Straight,0.4933319092,0.4388910532,-0.7818726897,0.9998250604,0.5173957348,0.3681423962,-0.7655438185,0.9994330406,0.536295414,0.3687758148,-0.7651329041,0.9996445179,0.5520291924,0.3703767061,-0.7658396363,0.9994686842,0.4715054929,0.3689935803,-0.7502022982,0.9993988872,0.4572452009,0.3696334958,-0.7507525682,0.9996137023,0.4402505457,0.3700473905,-0.7514253855,0.9994063377,0.5791628957,0.4076585174,-0.4747842848,0.9995983243,0.4256590903,0.4058846235,-0.4441935122,0.9994846582,0.5248491168,0.5264461637,-0.6777396202,0.9996424913,0.4646474719,0.5238118768,-0.6594988108,0.9995607138,0.6943014264,0.791100502,-0.2789058983,0.9995429516,0.3252968788,0.7781050205,-0.2457468063,0.9993895292,0.7902675867,1.055505276,-0.1295928508,0.2813215256,0.1998998225,1.033391356,-0.08729557693,0.2665970325,0.8864363432,1.580920577,-0.1076163426,0.08271370828,0.1265868694,1.588863492,-0.212184757,0.05361568183,0.9309455752,1.682555795,-0.09637650847,0.08484177291,0.08302175254,1.726092815,-0.2670763135,0.06489980966,0.90414083,1.696188211,-0.1854519397,0.1314848661,0.120624125,1.760069489,-0.3361005783,0.09988543391,0.880987525,1.665550232,-0.1408293843,0.1390112489,,0.5184036727,0.9035001993,-0.4397346584
Straight,0.4938768744,0.4388894439,-0.8581222296,0.9998294711,0.5174694061,0.3682701886,-0.8307846189,0.9994463921,0.5363069773,0.3688977659,-0.8303710818,0.9996443391,0.551972568,0.370395273,-0.8309366107,0.999478519,0.4719921052,0.3690395653,-0.8248013258,0.9994180202,0.4579485059,0.3696434498,-0.8253577948,0.9996210933,0.441893965,0.3700068295,-0.8260498047,0.9994295239,0.5788567066,0.4076418579,-0.5372406244,0.9995977283,0.4259040356,0.4057461917,-0.5150969028,0.9994958043,0.5248923898,0.5262667537,-0.7434374094,0.9996506572,0.4651225507,0.5238198638,-0.7348278761,0.9995755553,0.6921678782,0.7892823219,-0.3253781199,0.9995386004,0.3271174729,0.7758812904,-0.3244001567,0.9994131327,0.7939453721,1.052498937,-0.1658946425,0.2982381284,0.2010625601,1.029340744,-0.1389642656,0.2896695733,0.8939992189,1.530247808,-0.1743256152,0.08813026547,0.121681951,1.553943515,-0.2420246154,0.05941332877,0.9443839192,1.651800871,-0.1757791787,0.08800882846,0.08269618452,1.71487546,-0.2974666655,0.06921194494,0.9169380069,1.659519672,-0.2645088434,0.1361851096,0.120136559,1.743210912,-0.3764185905,0.1061177328,0.8944500685,1.630364776,-0.2101257741,0.1443867087,,0.5206734216,0.8931628859,-0.5023778521
Straight,0.4943296313,0.4390580952,-0.9913595915,0.9998335242,0.5176946521,0.3687132001,-0.9582192302,0.9994652867,0.5364103913,0.3694005609,-0.9578989744,0.9996483922,0.5519919395,0.3707767427,-0.9583366513,0.9994926453,0.4722587168,0.3694605231,-0.9546269178,0.9994401932,0.4583497047,0.3700556457,-0.9552105665,0.9996296167,0.4428339899,0.3703208566,-0.9559880495,0.9994529486,0.5786585808,0.4078200161,-0.6337112188,0.9996012449,0.4259909689,0.4059262574,-0.6185862422,0.999509275,0.5250238776,0.5263437629,-0.8620551229,0.9996564984,0.4655157924,0.5244166255,-0.85668993,0.9995880127,0.6908590198,0.7888625264,-0.3902256191,0.9995155931,0.3283227086,0.7759664059,-0.4046505392,0.9994180202,0.7920254469,1.049080133,-0.2429791689,0.3089895248,0.2029015273,1.028626561,-0.2537488341,0.3060228825,0.8845108151,1.551789165,-0.2876810431,0.09052237123,0.1216725931,1.555556059,-0.414576441,0.06390140206,0.9364921451,1.675143242,-0.2972602546,0.08903926611,0.07908497751,1.697313309,-0.4799569249,0.0728777796,0.9070359468,1.683565974,-0.3891511559,0.1375648379,0.1148090735,1.719808817,-0.5588589907,0.1114956439,0.8851367235,1.65140748,-0.3259198666,0.1461718529,,0.5187231465,0.8954278163,-0.6248950606
Straight,0.4950488508,0.4400319457,-0.9652944803,0.9998399615,0.5185446739,0.3695572615,-0.934232831,0.9994855523,0.5368279815,0.3701483011,-0.9339618683,0.9996606708,0.5522648096,0.3713055551,-0.9344875216,0.9995124936,0.4725756645,0.3704920113,-0.9294310808,0.9994614124,0.4586211145,0.3709731102,-0.929960072,0.9996426702,0.4432691038,0.3710670769,-0.9306734204,0.9994727373,0.5786514878,0.4078510404,-0.6194692254,0.9996173978,0.4259905815,0.4060853422,-0.5980704427,0.9995245337,0.5256314874,0.5270726681,-0.8392952085,0.9996656179,0.4659207761,0.5259314179,-0.8323121071,0.9995977283,0.6911526918,0.7883370519,-0.3895735443,0.9995274544,0.3282999694,0.7776575089,-0.3578644693,0.9994178414,0.7920517325,1.045417428,-0.2201297283,0.32175228,0.2057878971,1.028778434,-0.1905926466,0.3080406785,0.8812907338,1.543183208,-0.2412561625,0.09595277905,0.1288574487,1.563577771,-0.3072969317,0.06396360695,0.9300293922,1.668583632,-0.2535594702,0.09272262454,0.08448643237,1.700556993,-0.3709589243,0.07270994037,0.9007288218,1.678531051,-0.3396708369,0.1429022849,0.117648825,1.723949552,-0.4330265522,0.1113691777,0.8789705038,1.64643383,-0.2790752649,0.1517117918,,0.5187568627,0.8952510086,-0.5831905813
Straight,0.4953917861,0.4400063455,-0.8656243086,0.9998454452,0.5188621283,0.3698216379,-0.8321533203,0.9995073676,0.5369467735,0.3704794943,-0.8317940831,0.9996693134,0.5522851944,0.3715904355,-0.8323033452,0.9995319247,0.4728398323,0.3708706796,-0.8254092336,0.9994847775,0.4588588178,0.3714511096,-0.8259016275,0.9996538758,0.4437887073,0.3716368079,-0.8265377283,0.9994977117,0.5785884261,0.4080408812,-0.539378047,0.9996286035,0.4261444509,0.4065888822,-0.5087832212,0.9995385408,0.5258665681,0.5270335078,-0.752078414,0.9996779561,0.4661441445,0.5259257555,-0.7423681021,0.9996137023,0.6899787188,0.7883377671,-0.3644509017,0.9995304346,0.3297253251,0.7776768804,-0.3097180128,0.9994311929,0.7917997241,1.038218737,-0.2114656419,0.3350583911,0.2057047188,1.027264118,-0.153874591,0.3201284409,0.8797860146,1.551456571,-0.2355832756,0.09685151279,0.1185668111,1.562398672,-0.2824042439,0.0646718964,0.9261525273,1.670710444,-0.2382543087,0.09221417457,0.0683169961,1.692514539,-0.3478342891,0.07263273001,0.8970855474,1.682156086,-0.3316805959,0.1423207223,0.1036177501,1.716417313,-0.4207200408,0.1114883423,0.8754025698,1.6498456,-0.2738758922,0.1512290388,,0.5164478878,0.8950201029,-0.525099692
Straight,0.4954001009,0.4406772256,-0.9030048251,0.99985075,0.5188821554,0.3702829182,-0.870923996,0.9995231628,0.5369631052,0.3708713651,-0.8706412315,0.9996785522,0.5522946119,0.3718616366,-0.8711333275,0.9995466471,0.472850889,0.3715369701,-0.8664797544,0.9995031357,0.4588744044,0.3720475137,-0.8669900894,0.9996657372,0.4438165724,0.3721877933,-0.8676918745,0.9995167255,0.5785522461,0.4080887735,-0.5675911307,0.9996401668,0.4261855483,0.4066839814,-0.5465469956,0.9995538592,0.5258476734,0.5273483396,-0.7831447721,0.9996860027,0.4661521316,0.5266467929,-0.7764627337,0.9996241927,0.689991653,0.7887080908,-0.3630117178,0.9995318055,0.3301314414,0.7779145837,-0.3290558755,0.9994429946,0.7917588949,1.037469029,-0.2058825195,0.3421016335,0.2079624236,1.027445078,-0.148775965,0.325822562,0.8813260794,1.536080956,-0.21498546,0.09888399392,0.1436646283,1.566486239,-0.264893949,0.06606907398,0.9256020784,1.657382488,-0.2145798206,0.09342514724,0.09782060981,1.695080757,-0.3189631402,0.07375830412,0.8977704048,1.666548848,-0.3056791723,0.143940255,0.131311506,1.718025327,-0.3926280141,0.1129139513,0.8764926195,1.635635376,-0.2511953413,0.1534677148,,0.5204387172,0.8929550038,-0.5363755321
Straight,0.4954082072,0.4398798943,-0.8894303441,0.9998577237,0.5189315081,0.3697922528,-0.8687456846,0.999548316,0.5369910002,0.370452255,-0.8683578372,0.9996908307,0.5523079634,0.3713895977,-0.8689807653,0.9995697141,0.4728256762,0.3711843789,-0.8574950099,0.9995315671,0.4588708282,0.3718207777,-0.858078301,0.9996816516,0.4437494874,0.3720300794,-0.8587964773,0.9995459318,0.5785370469,0.4078418016,-0.5409125686,0.9996547103,0.4261493683,0.4066696465,-0.544537127,0.9995753765,0.5258681774,0.5262771845,-0.7752478719,0.9997001886,0.4661096931,0.5259087682,-0.7629525065,0.9996427894,0.6886922121,0.7851757407,-0.3376460671,0.9995333552,0.3301802874,0.7785044312,-0.3232248127,0.9994561672,0.7958037853,1.040223718,-0.1973398626,0.3554351032,0.2086631507,1.027745366,-0.176341787,0.3336479366,0.9091919065,1.522828817,-0.2053837031,0.1024345458,0.143150419,1.570972562,-0.3229152262,0.06818651408,0.9539123774,1.625616312,-0.2034721822,0.09578594565,0.09693257511,1.69655478,-0.3821328282,0.07563748956,0.9290046692,1.631145716,-0.2920525968,0.1471865922,0.1307047307,1.718458891,-0.4576587081,0.1153816134,0.9063273668,1.604769349,-0.2401273996,0.1573641598,,0.5258323835,0.88796556,-0.5378104394
Straight,0.4954100549,0.439435035,-0.8835209608,0.9998626709,0.5189614296,0.3695025146,-0.8555731773,0.9995684028,0.5370002389,0.3701840341,-0.8552415967,0.9997004867,0.5522764325,0.3711008728,-0.8557764292,0.9995875359,0.472815603,0.3710398078,-0.8466499448,0.9995526075,0.4588745534,0.3717438877,-0.8472062349,0.9996930361,0.4437504411,0.3719879687,-0.8479210138,0.9995672703,0.5784763694,0.4077741504,-0.5409523249,0.9996676445,0.4262107909,0.4066767097,-0.5357840061,0.999589026,0.5258603096,0.5255795717,-0.7662490606,0.9997097254,0.466114819,0.5256983638,-0.7549999952,0.9996542931,0.688334465,0.7852990627,-0.347076714,0.9995290041,0.3314658403,0.7778007388,-0.3186774254,0.999458909,0.7960342765,1.039871931,-0.2315700948,0.3714343011,0.2088105381,1.019995928,-0.1727456152,0.3429959118,0.9028857946,1.529657841,-0.2540724277,0.1045884863,0.1305640489,1.552106023,-0.3547459245,0.07046015561,0.9476796985,1.638857365,-0.2594994605,0.09648744762,0.07994683832,1.67248106,-0.4136586189,0.07750865072,0.9225597382,1.645728707,-0.3424119055,0.1481740028,0.1145880595,1.692455173,-0.4921419621,0.1181328818,0.9000954628,1.617360234,-0.2875766158,0.1587547511,,0.5226689001,0.8864698627,-0.5483659777
Straight,0.4957109392,0.4387919605,-0.8806852102,0.9998684525,0.5195536613,0.3693253696,-0.8481561542,0.9995881319,0.5371620655,0.3701061308,-0.8478316069,0.9997103214,0.5524116755,0.3710565865,-0.8483324051,0.9996046424,0.4733737409,0.3705750406,-0.8418771029,0.9995749593,0.459192425,0.3712988496,-0.8423836827,0.9997060895,0.4443801045,0.3714120984,-0.8431392908,0.9995906353,0.5784668922,0.4077754021,-0.5400921106,0.9996791482,0.426356554,0.4063602388,-0.5270537138,0.9996082783,0.5259180069,0.5245584249,-0.7611280084,0.9997189641,0.4663748145,0.52465415,-0.7533269525,0.9996688366,0.6879834533,0.7846387029,-0.344242394,0.9995222688,0.3319510818,0.777217865,-0.3286952376,0.9994670153,0.7984338999,1.040878415,-0.2306939811,0.3858367801,0.2087320536,1.016514301,-0.2498470843,0.3523716033,0.9209948778,1.522374868,-0.287969172,0.1099982709,0.1188549772,1.548651814,-0.467612803,0.0757727623,0.9686819315,1.621712565,-0.2979353964,0.1009960547,0.06630149484,1.665522814,-0.5363606811,0.08328928798,0.9451881647,1.62294817,-0.3879553974,0.1543003023,0.0987001732,1.678995252,-0.6141427159,0.1262977868,0.9207875133,1.597445011,-0.3266174197,0.1656429321,,0.5247959318,0.8819460923,-0.5730035691
Straight,0.4957185686,0.4371013641,-0.7995736003,0.9998682737,0.5195700526,0.3685126901,-0.761669457,0.9995915294,0.5371789932,0.3695527017,-0.7614161372,0.9997085333,0.5524076819,0.3706237376,-0.761897862,0.9996065497,0.4734243453,0.3689163327,-0.7581120729,0.9995805621,0.4592378736,0.3696844876,-0.7586315274,0.9997073412,0.4444702566,0.3694954216,-0.7593720555,0.9995985627,0.5783284307,0.4075335562,-0.4663723111,0.9996784925,0.4263785779,0.4053497612,-0.4529426098,0.9996100068,0.5259106159,0.5229873061,-0.6858076453,0.9997175336,0.4663639069,0.5224271417,-0.680642128,0.9996694326,0.6879400015,0.7846369147,-0.3020449281,0.9995034933,0.3319204748,0.7786554694,-0.2926789522,0.9994545579,0.7991881371,1.041966438,-0.226821661,0.3921394944,0.2086960822,1.016884923,-0.23691836,0.3531344533,0.9161159396,1.523633361,-0.2606681287,0.109065339,0.1191822141,1.571823239,-0.4101188779,0.07456113398,0.9618495107,1.629947543,-0.2653625011,0.0993072018,0.0676837638,1.69226265,-0.4693689942,0.08165431768,0.9365932345,1.631219625,-0.3541357517,0.1518403143,0.09972928464,1.71130693,-0.5481486917,0.1239233017,0.9133038521,1.603061795,-0.2972962558,0.1634072512,,0.5236905363,0.8862537904,-0.5140909322
Straight,0.4957109094,0.4359422028,-0.7998925447,0.9998666644,0.5195938349,0.3678548932,-0.760653615,0.99959445,0.5371865034,0.3690353334,-0.7603945136,0.9997050762,0.5523966551,0.3701611757,-0.7608283758,0.9996071458,0.4734207094,0.3683716357,-0.7563699484,0.9995851517,0.459239006,0.3692770302,-0.7568694353,0.9997066259,0.4444560111,0.369128108,-0.7575955391,0.9996041656,0.5783170462,0.407440275,-0.4585092068,0.9996767044,0.4263840616,0.4052161276,-0.440499872,0.9996083379,0.5259120464,0.5213340521,-0.6834222078,0.9997124672,0.4663418829,0.5208824873,-0.6774820089,0.9996654391,0.6880133748,0.7848541141,-0.2904214859,0.9994660616,0.3319073319,0.778763175,-0.2802026868,0.9994188547,0.7998405099,1.042146087,-0.2196648866,0.4016283453,0.2089232653,1.015468121,-0.2098112106,0.3495634496,0.9114488363,1.52760303,-0.2608072162,0.1085496023,0.1195378155,1.571760535,-0.3973824084,0.07329516113,0.9570053816,1.634302974,-0.2667766809,0.09801669419,0.06799766421,1.692670703,-0.4583880007,0.08035427332,0.931753993,1.636603951,-0.3508048654,0.1499401778,0.101298973,1.711846471,-0.5335011482,0.122297667,0.9086990356,1.606303453,-0.2960534692,0.1614840627,,0.5229720385,0.8866802698,-0.5080150603
Straight,0.4957154393,0.4345363081,-0.7651849389,0.9998714328,0.5196825266,0.3667730093,-0.7266530395,0.999607563,0.5372036695,0.3683397472,-0.7263880968,0.9997141361,0.5524146557,0.3697521091,-0.7268675566,0.9996195436,0.473495543,0.3661265969,-0.7269244194,0.9996002913,0.4592700899,0.366917938,-0.7274316549,0.9997175932,0.4445021152,0.3664391339,-0.7281447053,0.9996201396,0.5783005953,0.4073919952,-0.4311310351,0.9996876717,0.4263850152,0.4035204053,-0.4317836165,0.9996242523,0.5258861184,0.5203675032,-0.6515672803,0.9997211695,0.4662767351,0.5192174911,-0.6512528062,0.9996772408,0.6880447268,0.7849729657,-0.2556532919,0.9994702339,0.3306080997,0.7798246741,-0.2790763974,0.999427259,0.8000033498,1.043201923,-0.1362483948,0.40034917,0.2102051079,1.017433047,-0.1968386471,0.3431020081,0.9105045199,1.529487491,-0.1382060349,0.1083681881,0.1239314303,1.580666304,-0.3711828589,0.0722078979,0.9692124128,1.628361821,-0.1334183961,0.09803849459,0.07177767158,1.701585174,-0.4294604659,0.07974474877,0.9436224699,1.634793639,-0.2173699886,0.1502343863,0.1068942323,1.724239111,-0.5083450675,0.1215714216,0.9194495082,1.606969714,-0.1730229408,0.1620041877,,0.5251539106,0.8873144591,-0.460552347
Straight,0.4957183301,0.4343506396,-0.7334452271,0.9998731613,0.5197290182,0.3665884137,-0.6950713396,0.9996163249,0.5372191072,0.3681660891,-0.6948076487,0.9997184873,0.552462697,0.3695779145,-0.6952763796,0.9996284246,0.4735034406,0.3659774363,-0.6917861104,0.9996089339,0.4592762887,0.3668017983,-0.6922399998,0.9997222424,0.4445048869,0.3663199842,-0.6929207444,0.9996289015,0.5783023834,0.4073028862,-0.4077245593,0.9996947646,0.4263573289,0.4034029245,-0.3942966163,0.9996289611,0.5259003639,0.5203187466,-0.6231774092,0.9997250438,0.4662767053,0.519174993,-0.6187614799,0.9996806383,0.6883779764,0.7867084146,-0.2550154626,0.9994673729,0.3306026459,0.7801681757,-0.2445325851,0.9994104505,0.8016163707,1.043989658,-0.1457441151,0.410264641,0.2107451856,1.016834617,-0.1771798581,0.3376159072,0.8968349695,1.551630616,-0.1594583988,0.1082297936,0.1244349629,1.580683708,-0.3587936759,0.06963011622,0.9586328268,1.659496546,-0.157591477,0.09717252851,0.0720269233,1.702189445,-0.4158064723,0.07725127041,0.928437829,1.669035792,-0.2411080301,0.1487383991,0.1079407781,1.724960446,-0.4994397759,0.1180483326,0.906443119,1.63700664,-0.1941286027,0.1607545465,,0.5229701881,0.8927584494,-0.4449229985
Straight,0.4957663119,0.4343686104,-0.7555168271,0.9998699427,0.519970417,0.3665526807,-0.7196780443,0.9996128678,0.5373033881,0.36811921,-0.719371438,0.999710381,0.5525951982,0.3695241213,-0.7198936343,0.9996212125,0.4735263288,0.3659789562,-0.71614182,0.9996079206,0.459281534,0.3668157458,-0.7166153193,0.9997182488,0.4445080757,0.366360724,-0.7173012495,0.9996293187,0.5782966614,0.4072947204,-0.4285824895,0.9996880889,0.4263595939,0.4034145772,-0.4133645892,0.9996267557,0.5259860158,0.5203513503,-0.6429698467,0.9997178912,0.4662945271,0.5193552971,-0.6378268003,0.9996768832,0.6885176897,0.7880505919,-0.2567080259,0.9994294643,0.3305926621,0.7804325819,-0.2514235377,0.9993860722,0.801758647,1.045143723,-0.1989528239,0.4151934087,0.2071649134,1.016944408,-0.2110755444,0.3383870423,0.8968067169,1.571158171,-0.2503076196,0.1071870849,0.1229583025,1.580382943,-0.4026082456,0.06962388754,0.9532635808,1.683183432,-0.2580690682,0.09568027407,0.07183076441,1.70208025,-0.4633262753,0.07716170698,0.9229425192,1.689731479,-0.3354347646,0.1462831348,0.107530728,1.722875357,-0.5358878374,0.1179282591,0.9014519453,1.655852199,-0.2834441662,0.1587469876,,0.5220321146,0.8965441422,-0.4833863621
Straight,0.4960096478,0.4344762564,-0.7721126676,0.9998646975,0.5203716755,0.3665955067,-0.7344042659,0.999610424,0.5374463797,0.3681373894,-0.7341529131,0.9997006655,0.5528155565,0.3695305586,-0.7347639799,0.9996185303,0.4737327695,0.3660351336,-0.7315669656,0.9996049404,0.4593673348,0.3668629527,-0.7320010066,0.9997090101,0.4447416365,0.3663878143,-0.7327182293,0.999627769,0.5782893896,0.4072670043,-0.4399950504,0.9996799231,0.4263619781,0.4033839703,-0.4279433191,0.9996103644,0.5263932943,0.5203751922,-0.6572033167,0.9997122884,0.4664909244,0.5194240808,-0.6533264518,0.9996703267,0.688544929,0.7881876826,-0.2878626883,0.9993966818,0.3295316994,0.7821875811,-0.2540841699,0.9993394613,0.8016816974,1.050598025,-0.2266920805,0.4200061858,0.2065397799,1.020562053,-0.2017358243,0.3353491724,0.8859025836,1.589653015,-0.2790861428,0.1057424843,0.121841982,1.585908294,-0.3793901503,0.06773520261,0.9409354925,1.708497405,-0.2878190875,0.09404916316,0.0706423372,1.706958652,-0.4390142858,0.07523819059,0.8885854483,1.730328918,-0.3671187162,0.1439082623,0.1060028672,1.728151798,-0.5113055706,0.1152964011,0.8881093264,1.684958577,-0.312250495,0.1561587006,,0.5186517604,0.9029303572,-0.4952976081
Straight,0.496026814,0.4342904389,-0.8071746826,0.9998661876,0.5203890204,0.366381824,-0.771617353,0.9996132851,0.5374627709,0.3679511547,-0.7713622451,0.9997032881,0.5528277755,0.3693698347,-0.7718753815,0.9996203184,0.4737611413,0.3658111095,-0.7696269751,0.9996081591,0.459382236,0.366726011,-0.7700864673,0.9997122884,0.4448041022,0.3663070798,-0.7708725333,0.9996317029,0.5782716274,0.4072200358,-0.4813730717,0.9996829629,0.4264111519,0.4033613503,-0.4722528458,0.9996156096,0.5264684558,0.5202354193,-0.693531096,0.9997127056,0.4665355086,0.5194203258,-0.6904281378,0.999671936,0.6885858774,0.7884561419,-0.3205936551,0.9993935227,0.3305296004,0.7822265625,-0.2997162342,0.999344945,0.8011062741,1.050567508,-0.2363878489,0.4243654311,0.2061451674,1.020683885,-0.2117772549,0.3410795033,0.8830692172,1.587357759,-0.2682316899,0.1060007811,0.118235372,1.583637357,-0.3699336052,0.06890521199,0.9384277463,1.70619452,-0.2726509869,0.09406715631,0.06645341218,1.702715158,-0.4285153449,0.07628115267,0.8896622658,1.727523804,-0.3535129428,0.1437431723,0.1007129326,1.722575545,-0.5004792213,0.1166420653,0.8869180679,1.682412863,-0.3016917109,0.1565047055,,0.5178266608,0.9018829858,-0.5151677856
Straight,0.4961823523,0.4338024855,-0.7676990032,0.9998605847,0.5204808116,0.3660847247,-0.7344251871,0.9996008873,0.5374794602,0.3677302599,-0.734136343,0.9996911287,0.5528440475,0.3692080975,-0.7346679568,0.9996089935,0.4739264846,0.3653237224,-0.7310744524,0.9995960593,0.4594547749,0.3663158417,-0.7315648794,0.9997013807,0.4449184835,0.3659169376,-0.7323231697,0.9996230602,0.5781587362,0.4071175456,-0.4566684365,0.9996712208,0.4263306558,0.4030979276,-0.4421492219,0.9995993376,0.5265333652,0.519865334,-0.6587878466,0.999704957,0.4666001201,0.5190162063,-0.6539325118,0.9996635318,0.6885828376,0.7885408401,-0.3056295216,0.9993765354,0.3299564421,0.7827040553,-0.2752459645,0.9993283153,0.7987498045,1.049836278,-0.2203761339,0.4229065478,0.2067526877,1.020757079,-0.1632938534,0.3373730183,0.8796087503,1.585862279,-0.2376238108,0.1036346033,0.1184840426,1.575514436,-0.3026490808,0.06690024585,0.9361928701,1.704447627,-0.2414928228,0.0919476673,0.08508469909,1.707879663,-0.3577902615,0.07424323261,0.8917046785,1.723774672,-0.3158562183,0.1406624317,0.1218621582,1.72880125,-0.4243145883,0.1137163192,0.8843047023,1.680254459,-0.2681034505,0.1532395929,,0.5192814984,0.9014478055,-0.4768093052
Straight,0.4961524606,0.4338947237,-0.7537879348,0.9998563528,0.5205057859,0.3662036061,-0.7209641337,0.9996003509,0.5374928713,0.367873162,-0.7206865549,0.9996858239,0.5528770089,0.3694043756,-0.7212474346,0.9996090531,0.4739248157,0.365362674,-0.7165262699,0.9995936155,0.4594514966,0.3663382232,-0.7170342803,0.9996941686,0.4449126124,0.3659259081,-0.7177473903,0.9996191859,0.5781877637,0.4072250724,-0.4455006123,0.999669075,0.4263313711,0.4030695558,-0.425772965,0.9995885491,0.5265387297,0.5202257633,-0.6455669999,0.9997053742,0.4665579796,0.5191762447,-0.6392408609,0.9996619821,0.6888364553,0.7910594344,-0.2935498357,0.9993598461,0.3296069503,0.7852011919,-0.2529195845,0.9992917776,0.798755765,1.055788398,-0.1934736967,0.4163095951,0.2062081844,1.020824552,-0.1232710034,0.3275638819,0.8745262027,1.59700644,-0.1721612364,0.1004178077,0.1284822822,1.578596711,-0.2486613095,0.06365597993,0.9173721075,1.715054989,-0.1669944972,0.0891462788,0.08984404057,1.708370924,-0.3003245294,0.07090801001,0.879257977,1.732445598,-0.239732191,0.1366094649,0.1268295646,1.730133533,-0.3620911539,0.1088257432,0.8643706441,1.692748189,-0.1994450986,0.1490075588,,0.5175919577,0.9041786031,-0.4443954351
Straight,0.4961551726,0.4335989952,-0.7277669907,0.9998500347,0.5205795765,0.3656016588,-0.6935556531,0.9995907545,0.5375275612,0.3672635257,-0.6932634115,0.9996725321,0.5529648066,0.3688185513,-0.6937633753,0.9995986819,0.4739504457,0.3645115793,-0.6908739805,0.999584794,0.4594584405,0.3654486835,-0.6913694739,0.9996826649,0.4449241161,0.3649902642,-0.6921156645,0.9996122122,0.578266263,0.4069406688,-0.4194749296,0.9996569157,0.4263269007,0.4025550783,-0.4078114629,0.9995764494,0.5265433788,0.520011723,-0.620382309,0.9996996522,0.466501385,0.5189678669,-0.6164835095,0.9996578693,0.6889259219,0.7913089395,-0.2710217834,0.9993332028,0.3292741179,0.7857226729,-0.2557549775,0.9992727637,0.7985315919,1.054711699,-0.1865911335,0.4136995673,0.2059448212,1.022115469,-0.1341689527,0.3217042685,0.8751623034,1.590216279,-0.1742055118,0.09808851033,0.1270469427,1.568153858,-0.2554056346,0.06161904708,0.9183697701,1.712790251,-0.1721700877,0.0872130543,0.0915478915,1.710294724,-0.3139638305,0.06901808828,0.8822194338,1.730133176,-0.2435218543,0.1337717474,0.1295526773,1.731460214,-0.3734301925,0.1061917022,0.8656392097,1.690755248,-0.2027054578,0.1459022015,,0.5179733058,0.9030168693,-0.4331727353
Straight,0.4962074161,0.4331364036,-0.7411168218,0.9998451471,0.520653069,0.3648771644,-0.7067210674,0.9995815158,0.5375435352,0.3664873242,-0.7064412236,0.9996625185,0.5529978871,0.3680339754,-0.7069344521,0.9995888472,0.4740417898,0.3638856709,-0.7032550573,0.9995755553,0.4594890475,0.3649483025,-0.703758359,0.999673903,0.4450294077,0.3646328747,-0.7045139074,0.9996051788,0.5783101916,0.4063972831,-0.4281012118,0.9996467233,0.4263875484,0.402374357,-0.4136937559,0.9995671511,0.5267595649,0.5191530585,-0.6322501302,0.9996926188,0.4665957391,0.5186165571,-0.6273244023,0.9996518493,0.6892995834,0.7912402749,-0.2722237706,0.99931252,0.3296228647,0.7857643962,-0.2582329214,0.9992609024,0.7978286743,1.055296659,-0.1957837045,0.4097683728,0.2059417963,1.022447348,-0.1388930827,0.3196010292,0.8755017519,1.587482214,-0.2038190067,0.09687495232,0.1243210286,1.559925199,-0.260899961,0.06091519445,0.9192553759,1.712343216,-0.2068275958,0.08635914326,0.09131395817,1.711058497,-0.3151647449,0.06843656301,0.8836548924,1.728361845,-0.2809859812,0.1323747188,0.1289735287,1.73184526,-0.3821604848,0.1052783877,0.8668863177,1.69008112,-0.23391895,0.1444965601,,0.5180279531,0.9021995,-0.446500936
Straight,0.4968179166,0.4232350588,-0.6089533567,0.9998446107,0.5209287405,0.3567321301,-0.5724978447,0.9995781779,0.5376799703,0.3575669527,-0.5721644163,0.9996629953,0.5532191992,0.3591963053,-0.5726531744,0.9995868802,0.4746890664,0.3556702137,-0.5689573884,0.999570787,0.4598654211,0.3562232256,-0.5694521666,0.9996734262,0.4456664026,0.3571381867,-0.5700926781,0.9996016026,0.5783318877,0.399854064,-0.3141940534,0.9996467233,0.4264806211,0.3991829455,-0.2999250889,0.999566555,0.5277717113,0.5054085851,-0.5109730363,0.9996899366,0.467567265,0.5062550306,-0.5061517954,0.9996486306,0.6895316839,0.7929365635,-0.1929283142,0.9993054867,0.3296174407,0.7865217328,-0.1781025678,0.9992419481,0.7951848507,1.054937124,-0.1055271775,0.4016880691,0.2063168585,1.022488475,-0.04835115746,0.3129197955,0.8742133379,1.586609721,-0.07356189191,0.09409020841,0.1227038875,1.560093045,-0.1262035519,0.05805423111,0.9167170525,1.708895206,-0.06273634732,0.08397129923,0.08550329506,1.712019205,-0.173372373,0.0653988868,0.882858932,1.72778368,-0.1362523884,0.1288537681,0.1244409084,1.735997677,-0.2340403795,0.1008578762,0.8648121953,1.689854383,-0.1022888198,0.1406894624,,0.5173144838,0.8979363414,-0.3226990894
Straight,0.497071743,0.4115881622,-0.668022275,0.9998493791,0.5214448571,0.3457391858,-0.6316254735,0.9995946884,0.5379562378,0.3467081189,-0.6313022971,0.9996732473,0.5536955595,0.3491999805,-0.6318234801,0.9996029735,0.4751862586,0.3434136212,-0.6279711127,0.9995866418,0.4601113796,0.3429448605,-0.6284893751,0.9996822476,0.4460232854,0.3445102274,-0.6291618943,0.9996148944,0.5785310268,0.3917970955,-0.3590869308,0.9996576309,0.4265636504,0.3897275627,-0.3437069058,0.999575913,0.5281306505,0.4915995598,-0.5635061264,0.9997025728,0.4676744044,0.4921208322,-0.5583340526,0.9996616244,0.6897645593,0.7949877381,-0.2208733559,0.9993143678,0.3296096027,0.786413312,-0.1992849857,0.9992282391,0.7962728739,1.054820776,-0.1301799268,0.3980559111,0.2062075138,1.025974154,-0.0749585107,0.3057487905,0.8860521317,1.585962057,-0.1236789227,0.09477493912,0.1217078343,1.574174047,-0.1969797313,0.05632184446,0.927878201,1.707356572,-0.119490996,0.08473713696,0.07537355274,1.712900281,-0.2509255409,0.06370227039,0.8926402926,1.726638436,-0.1959309876,0.13044855,0.115418531,1.738390803,-0.3150520027,0.09855127335,0.8723157644,1.689454317,-0.1541420966,0.1422449648,,0.5184377232,0.8930191682,-0.3752057718
Straight,0.4990733564,0.403838098,-0.6804315448,0.9998475909,0.5229335427,0.3377740085,-0.6443306208,0.999589026,0.5387050509,0.3389040828,-0.6440314054,0.9996688962,0.5547812581,0.3415458798,-0.644528687,0.9995959997,0.4772147536,0.3364379406,-0.6419692039,0.9995821118,0.461591661,0.3360389769,-0.6425221562,0.9996793866,0.4480192661,0.3378293216,-0.6432155967,0.9996117353,0.578797698,0.3844365478,-0.373239547,0.9996499419,0.4271876812,0.3844311237,-0.3611111045,0.9995756149,0.5303963423,0.4808025062,-0.5766602755,0.9997009635,0.4703351557,0.4823160768,-0.5727866888,0.9996628761,0.6900094151,0.7949512005,-0.2297781706,0.9993083477,0.3297062218,0.786334753,-0.2087646276,0.9992340207,0.7962778211,1.054189086,-0.1318313926,0.3888406157,0.2065542191,1.027460814,-0.08645684272,0.3082410097,0.8843532801,1.570083141,-0.1278210878,0.09286598116,0.1252638996,1.585333586,-0.177878499,0.05568629503,0.9276088476,1.692872286,-0.1240011081,0.08311562985,0.07635633647,1.716791987,-0.2296443284,0.0626738295,0.892703712,1.70921874,-0.201477766,0.1280192584,0.1163628921,1.742940784,-0.293717891,0.09690928459,0.8724589348,1.674514651,-0.1589545906,0.1398044825,,0.5193950612,0.8872293451,-0.3815978698
Straight,0.4998445511,0.397248596,-0.5975058675,0.9998523593,0.5233184099,0.3312504292,-0.5534552336,0.9995972514,0.5388354659,0.3327173293,-0.5531682968,0.9996792674,0.5549277067,0.33579427,-0.5536192656,0.9996037483,0.4777443409,0.3299389184,-0.5560032129,0.9995916486,0.4619262815,0.3298993111,-0.5565493703,0.9996906519,0.4484733045,0.3319306374,-0.5572000742,0.9996216893,0.5785124302,0.3795360923,-0.2819165587,0.9996620417,0.4271646142,0.3801365197,-0.2952268422,0.9995924234,0.5309151411,0.4725729525,-0.4969628751,0.9997061491,0.4710238874,0.4744388163,-0.5001291037,0.9996700287,0.6897080541,0.7944068909,-0.1739877462,0.9993259311,0.3290685117,0.7866798639,-0.1925897896,0.9992359281,0.7967172861,1.052647352,-0.1240119562,0.3883298934,0.206664294,1.039557099,-0.127361834,0.300011754,0.8991476893,1.565795541,-0.1314466596,0.09279319644,0.1227009147,1.578406096,-0.3196439445,0.05468242243,0.9422186613,1.679575562,-0.131530717,0.08311852068,0.07146732509,1.71683383,-0.3838513494,0.06208238378,0.9087564349,1.693049908,-0.2072259188,0.1281627864,0.1115101352,1.742845654,-0.4427741468,0.09631313384,0.8869217038,1.661464095,-0.1620987952,0.1400198191,,0.5217075974,0.8821238984,-0.3590117981
Straight,0.4998857975,0.3933347464,-0.6397842765,0.9998499155,0.5233219862,0.3281309903,-0.5991113782,0.9995856881,0.5388324261,0.3295282423,-0.5988205671,0.9996771812,0.5549123883,0.332639426,-0.5993018746,0.9995926619,0.477745682,0.3272197843,-0.5984513164,0.9995778799,0.4619316459,0.3274405301,-0.5989898443,0.9996875525,0.448528111,0.3298600018,-0.5996775031,0.9996097088,0.5784749389,0.377445519,-0.3232597113,0.9996570945,0.4271820188,0.3785256743,-0.3209891021,0.9995867014,0.5311416388,0.4683747888,-0.5358623862,0.9996942878,0.4711657166,0.4709626436,-0.5349932909,0.9996573925,0.6898638606,0.7964358926,-0.1956749558,0.9992972612,0.3290749788,0.7867586017,-0.1979690939,0.9992025495,0.7987348437,1.060512781,-0.1275383979,0.3831831217,0.2066720277,1.037482738,-0.1118297204,0.2953993678,0.8889551163,1.567548633,-0.1389021724,0.09029852599,0.1265184432,1.580346704,-0.2674640119,0.05310190469,0.932181716,1.685803771,-0.1369410008,0.08098298311,0.07472930104,1.716426969,-0.3253845572,0.06038318574,0.9001320601,1.701864839,-0.2139180601,0.1251124591,0.1151864752,1.742720008,-0.3831382096,0.09394118935,0.8787735701,1.668441057,-0.1701067984,0.1364643276,,0.5206338519,0.8821729246,-0.3735503741
Straight,0.5032721758,0.3903032839,-0.6212384105,0.9998531342,0.525146842,0.3272385597,-0.5789806247,0.9995952845,0.5396640301,0.3288464844,-0.578609705,0.9996834397,0.5559154153,0.3318071365,-0.579115212,0.9996019006,0.481223017,0.326576829,-0.5802060366,0.9995878935,0.4653436244,0.3269913495,-0.5807584524,0.9996945262,0.4517839551,0.3291124701,-0.5814521909,0.9996207356,0.5784752369,0.3765761852,-0.3038778901,0.9996637106,0.428516537,0.3780217767,-0.3109258115,0.9995977879,0.5331705809,0.4648492932,-0.5188139677,0.9997019172,0.4755084515,0.4677042365,-0.52016747,0.9996671677,0.6896389127,0.7964384556,-0.1825215667,0.9993101954,0.329151839,0.7864925861,-0.200709939,0.9992133379,0.7988273501,1.058364987,-0.1180721968,0.3832474649,0.2067549676,1.037311673,-0.1126946658,0.294233948,0.8901640773,1.565041423,-0.1447422206,0.09000568092,0.1319229901,1.580467105,-0.2735459507,0.05284479633,0.9329506755,1.676939726,-0.1406980455,0.08100116998,0.08075142652,1.712886572,-0.3357045054,0.06038708612,0.9009180069,1.691074491,-0.2177280635,0.1252581775,0.1208881736,1.736339331,-0.3931196332,0.09411428869,0.879252255,1.659442186,-0.1754243672,0.1364203542,,0.5226927518,0.8794920973,-0.3658684966
Straight,0.505690217,0.3865342438,-0.7381211519,0.9998570681,0.5267424583,0.3243157268,-0.6928905249,0.9996094108,0.5405910611,0.3263450265,-0.6925113797,0.9996919036,0.5571504235,0.3294329345,-0.6929910183,0.9996139407,0.4837314487,0.3240248859,-0.6892799735,0.9996008873,0.4678593576,0.3249422312,-0.6898617744,0.9997025132,0.4541921616,0.3271398544,-0.6906218529,0.9996324182,0.5788215995,0.3751119077,-0.3855803013,0.9996722937,0.4302943349,0.3770614564,-0.3723275065,0.9996073246,0.5349997878,0.4612253308,-0.623314023,0.9997091293,0.4787875712,0.4646495879,-0.6183974743,0.9996759295,0.6902194023,0.7974017859,-0.2375772446,0.9992997646,0.3303425908,0.7839548588,-0.22460787,0.9992004037,0.7993959188,1.065005064,-0.1797473878,0.3858088255,0.2076717615,1.032407165,-0.1451387107,0.2941931784,0.8773115873,1.589664221,-0.2454812527,0.08917438239,0.131649971,1.575634241,-0.3415629864,0.05302139744,0.9164316058,1.706095576,-0.2553688586,0.08025903255,0.07987003773,1.69984746,-0.4082447886,0.06067232415,0.882122159,1.720522761,-0.3351186812,0.1243585497,0.1184319481,1.721502304,-0.4762067795,0.09494096041,0.8606473804,1.683859706,-0.2790652514,0.1351778805,,0.5205888538,0.8816671968,-0.4551825815
Straight,0.5066411495,0.3832811713,-0.653085351,0.999853313,0.5274466872,0.3223862648,-0.6064702272,0.999602139,0.5409647226,0.3248098493,-0.6061080694,0.9996820092,0.5575807691,0.3281337023,-0.6066180468,0.9996062517,0.4850967526,0.3214966953,-0.6075670123,0.9995951056,0.4692132473,0.3225487769,-0.6080672145,0.9996953011,0.4556089342,0.3246584237,-0.6088476777,0.9996302128,0.5789048672,0.374366641,-0.3250339329,0.9996612072,0.4310862124,0.3752188087,-0.3303060234,0.9995988607,0.535746932,0.4588865042,-0.5493996143,0.9997044206,0.4800071716,0.4609470069,-0.5505595207,0.999673903,0.6904203892,0.7973325253,-0.2180555314,0.9992703795,0.3291827142,0.7844473124,-0.2185594589,0.9991676211,0.8016568422,1.064638019,-0.1773785502,0.3847768009,0.2075015306,1.037050724,-0.149986729,0.2901199758,0.8973594904,1.586175203,-0.2604814172,0.0898540169,0.1314108223,1.582250476,-0.3343808055,0.05299204588,0.9406305552,1.694252014,-0.2757017016,0.0814453885,0.08292336017,1.725631833,-0.4027026594,0.06131342053,0.9078910947,1.706258655,-0.3516841829,0.126197964,0.1217452884,1.743043303,-0.4659870267,0.09617559612,0.8840737343,1.674537778,-0.2945939004,0.1370298862,,0.5255951485,0.8814705312,-0.4182533933
Straight,0.5065903664,0.3834507465,-0.6287425756,0.9998588562,0.527405858,0.3222533166,-0.579420507,0.9996131063,0.5409423709,0.3244897127,-0.5790934563,0.9996945262,0.5575396419,0.3276842833,-0.5795919895,0.9996175766,0.4850691259,0.321534425,-0.581925571,0.9996076822,0.4691244662,0.3224890232,-0.5824136734,0.9997084737,0.4555501938,0.3246216774,-0.5831783414,0.9996430874,0.5788938403,0.3736985028,-0.2898315787,0.999674499,0.4310083389,0.3750296235,-0.3028436899,0.9996165037,0.5357934237,0.4591973126,-0.5228431225,0.9997099042,0.4798526764,0.4615044594,-0.5259996057,0.999681592,0.6903598309,0.7974404097,-0.1835746616,0.9992818832,0.3289360702,0.7850503922,-0.2012930363,0.9991776347,0.8019123077,1.061377048,-0.1542670578,0.3890155852,0.2075086534,1.041871667,-0.162418291,0.2885839045,0.9104706645,1.564320683,-0.2558746338,0.08973466605,0.1307294071,1.577012658,-0.371219933,0.05300642923,0.9558515549,1.662213802,-0.2743433118,0.08167288452,0.08351377398,1.725785613,-0.4365353584,0.06169727445,0.9271426201,1.672777176,-0.3435441852,0.1265644282,0.1227816492,1.743886828,-0.4963859022,0.09681047499,0.9032853246,1.64456296,-0.2926236093,0.1372022331,,0.5286482799,0.8760114691,-0.4058165496
Straight,0.5065792799,0.3832044303,-0.5234066844,0.9998550415,0.5275036097,0.3217378557,-0.4845960736,0.9996044636,0.5410225391,0.3239571452,-0.4841944277,0.9996857047,0.5576840639,0.3271144032,-0.4847182631,0.9996108413,0.4850560725,0.3212949634,-0.4854357243,0.9995983243,0.469091326,0.3222868145,-0.4859522283,0.9997001886,0.4556019902,0.3244611621,-0.486623764,0.9996374249,0.5790425539,0.3730143607,-0.2387343645,0.9996627569,0.4313069284,0.3746708333,-0.2441779375,0.9996052384,0.5359207392,0.4586622417,-0.4324439466,0.9997076988,0.4798310399,0.4615622759,-0.4333285689,0.9996800423,0.6901437044,0.7973964214,-0.1452327669,0.9992712736,0.3290323317,0.7846179605,-0.1642617136,0.9991762638,0.7976842523,1.054103971,-0.08194291592,0.3830555379,0.2077820599,1.040784121,-0.05919028074,0.2874058187,0.889447093,1.564410686,-0.09306491911,0.08725850284,0.1334782094,1.579838753,-0.1374189854,0.05117599666,0.9303886294,1.663262486,-0.09078294039,0.0794634521,0.08502274752,1.724949121,-0.1910995394,0.05953027681,0.8987320065,1.673448563,-0.1625220478,0.1233318001,0.1252228916,1.743716478,-0.2470175475,0.0936267525,0.8767169118,1.645039558,-0.123754859,0.1335248947,,0.5241950446,0.8756152093,-0.2854500227
Straight,0.50664711,0.3824125528,-0.5688853264,0.9998535514,0.5275494456,0.3209264278,-0.5256994367,0.9995980263,0.541029036,0.3231221437,-0.5253654718,0.9996834993,0.5576853752,0.3262083232,-0.5258373022,0.9996047616,0.4851642251,0.320669204,-0.5276993513,0.999594152,0.4691707194,0.3217622042,-0.5282304883,0.9997003675,0.4557767808,0.3239920139,-0.528940022,0.9996356964,0.5790211558,0.3720136285,-0.2558524907,0.9996614456,0.4316628575,0.3742521405,-0.2681768537,0.9996079803,0.5360333323,0.4572136402,-0.4691849649,0.9997013807,0.4800660014,0.4607785642,-0.4716077745,0.9996758699,0.6900690794,0.7971446514,-0.1524304748,0.9992626905,0.3291011155,0.7848851681,-0.1751771271,0.9991583228,0.7984104156,1.052880526,-0.09871663153,0.3872951865,0.207781598,1.043700695,-0.1165066957,0.286002934,0.8928474188,1.56423521,-0.1152020842,0.08700626343,0.1371137947,1.586852312,-0.2886078954,0.05123017356,0.9333779216,1.664296985,-0.1122193485,0.07924015075,0.08814639598,1.724572897,-0.3511307836,0.05974170193,0.9035145044,1.674802661,-0.1890957505,0.122820355,0.1273386776,1.743588567,-0.4072081149,0.09389462322,0.8813284039,1.645835161,-0.1462555677,0.1331005692,,0.5254016075,0.8757338944,-0.3340013616
Straight,0.5067151785,0.3812316358,-0.5908834934,0.9998522401,0.5280816555,0.3199201822,-0.5474715829,0.9995973706,0.5415118337,0.3224332035,-0.547146678,0.9996802807,0.5585725307,0.3257398009,-0.5476144552,0.999604702,0.4851923585,0.3194215596,-0.5492400527,0.9995909333,0.469139874,0.3206554055,-0.5497701168,0.999694705,0.4557517171,0.3230684996,-0.5504821539,0.9996312857,0.5795461535,0.3717560172,-0.2591862082,0.9996587634,0.4317085147,0.3735943139,-0.281714499,0.9995969534,0.5362424254,0.4565454125,-0.4886042476,0.9997045994,0.480006367,0.4595990181,-0.4903891087,0.9996766448,0.6919694543,0.7979574203,-0.1759884506,0.9992521405,0.3291287124,0.7849072814,-0.1681902111,0.9991402626,0.8007184267,1.064561248,-0.1192875132,0.3821818531,0.2080106735,1.043637991,-0.06084965542,0.2797611058,0.8799092174,1.57499969,-0.1165127307,0.08502427489,0.1367915273,1.581614971,-0.1889306009,0.04940972105,0.9239912033,1.709593654,-0.1198676825,0.07753513753,0.09047611058,1.723263025,-0.2479654253,0.05772267655,0.8870752454,1.726714969,-0.1947840452,0.1204755902,0.1312122643,1.743473649,-0.3052228391,0.09100341052,0.8656532168,1.691340923,-0.1535973251,0.1304550767,,0.5235183937,0.8825468123,-0.3297135943
Straight,0.5078532696,0.3806841075,-0.6538543105,0.9998503327,0.5289361477,0.3189689219,-0.6036149263,0.9995943904,0.5422084332,0.3215037882,-0.6033548117,0.9996786118,0.5594996214,0.3248127699,-0.6038151979,0.999599278,0.4859604239,0.3186357617,-0.6043800116,0.9995871186,0.4697337151,0.3199841082,-0.6049625874,0.9996931553,0.4562195837,0.3224078417,-0.6057152748,0.9996272922,0.5797139406,0.3706451952,-0.2894805074,0.9996566176,0.4319395423,0.3729112446,-0.3060319424,0.9995946288,0.5370311141,0.4557837546,-0.5417124033,0.9996974468,0.4810506701,0.4591611326,-0.542565465,0.9996699691,0.6922290921,0.7986400127,-0.1874865741,0.9992195964,0.329176724,0.7856698632,-0.1788062602,0.9990941286,0.8020809293,1.06788075,-0.1562671959,0.3818096817,0.2083847821,1.042880058,-0.13910833,0.278286159,0.8802005053,1.585596681,-0.2197884619,0.08326349407,0.1354155391,1.582081079,-0.3537354767,0.04870000482,0.924413383,1.711570382,-0.2302076519,0.07574961334,0.08631373942,1.719614029,-0.4196411967,0.05675636604,0.8881320953,1.727680802,-0.3043668866,0.117907688,0.125394389,1.740131617,-0.4811479449,0.08967999369,0.8666883707,1.691952705,-0.2537781596,0.1276506186,,0.5235716369,0.8826907548,-0.4038100717
Straight,0.5093891621,0.3789394498,-0.5809281468,0.9998540878,0.5295667052,0.3180209398,-0.539414525,0.9996030927,0.5426437855,0.3205406666,-0.5390079021,0.9996855259,0.5599700212,0.3238394558,-0.5394915342,0.9996079206,0.486881882,0.3180195391,-0.5406769514,0.9995962977,0.4706273973,0.3196257353,-0.5411983728,0.9997005463,0.4568659365,0.3221212924,-0.5418888927,0.9996369481,0.5798194408,0.3700192869,-0.2719736695,0.9996619225,0.432317555,0.3729029894,-0.2827563286,0.9996042252,0.5381864309,0.4542524219,-0.4837661684,0.9997048974,0.4827269018,0.4575572908,-0.4851891398,0.9996790886,0.691947937,0.7989582419,-0.1598319858,0.9992229342,0.3291782737,0.7863402367,-0.1775683016,0.9991137385,0.8022236824,1.067693114,-0.06502059847,0.374106437,0.2083702534,1.045305371,-0.08370281756,0.2750782371,0.8906913996,1.577296615,-0.05064859241,0.08157484978,0.1370693147,1.591934085,-0.1805786341,0.04758656397,0.9365887642,1.687444687,-0.03877356276,0.07445263118,0.08748928457,1.723425508,-0.2336745262,0.05562273413,0.9053853154,1.707107186,-0.1162764058,0.1161954105,0.1268338114,1.746735811,-0.2900930047,0.08811995387,0.8823128939,1.676069617,-0.08266339451,0.1257064044,,0.526685734,0.8801886155,-0.3102328843
Straight,0.5156320333,0.3746065795,-0.5745173097,0.9998559952,0.5337406397,0.3139490783,-0.5292462111,0.999607265,0.5483910441,0.3169057071,-0.5288761854,0.9996912479,0.5640538931,0.3210551441,-0.5293872952,0.9996131063,0.4918543398,0.312512815,-0.5334843993,0.9996006489,0.4762871861,0.3143896461,-0.5340098739,0.9997064471,0.4609603882,0.3170718849,-0.5347211361,0.9996417165,0.581253171,0.3692650795,-0.2582907081,0.9996699691,0.4345444739,0.368806541,-0.2810412943,0.9996122718,0.5420054197,0.4519695342,-0.4757397175,0.9997090697,0.4869144857,0.4537748098,-0.4812259078,0.9996846318,0.6920269728,0.8012126684,-0.1623013169,0.9992368221,0.3273122907,0.7914386392,-0.1796166301,0.9991098642,0.8048545718,1.067663193,-0.08454468846,0.3796961308,0.207789138,1.047144413,-0.1186953038,0.2715180218,0.8988921046,1.581786275,-0.09612737596,0.08159460872,0.1351890266,1.592958093,-0.268037796,0.04649396986,0.9436792135,1.692738056,-0.09253907204,0.07441464067,0.08766339719,1.73067677,-0.3257859349,0.05453585833,0.9115298986,1.712254167,-0.1692023575,0.1161533371,0.1272350103,1.755321026,-0.3796550632,0.08647380024,0.8885939717,1.680225253,-0.1283326,0.1257568598,,0.5300183032,0.8803511533,-0.3302444626
Straight,0.5191287398,0.3755966723,-0.5847862363,0.9998608828,0.5364584923,0.3154849112,-0.5387224555,0.9996219277,0.552067399,0.3187510073,-0.5383461714,0.9997007251,0.5667421818,0.3224448562,-0.5388411283,0.9996274114,0.4949189126,0.3136943281,-0.5427857637,0.9996166229,0.480464071,0.315531075,-0.5433074832,0.9997168779,0.464905411,0.3177325428,-0.5440072417,0.9996567369,0.5835369825,0.3707953095,-0.2601346076,0.9996805191,0.4391633868,0.3694481254,-0.2846347988,0.9996258616,0.5451544523,0.4532116055,-0.4836555123,0.99971807,0.4901109636,0.4540838599,-0.4887720942,0.9996958971,0.6921082735,0.8012390137,-0.1618350595,0.9992522597,0.3273805082,0.791641891,-0.1806351244,0.9991186261,0.8048669696,1.067480326,-0.09512104094,0.3903154433,0.2069243491,1.048602581,-0.1324050575,0.2738910615,0.9020296335,1.5803684,-0.1146288738,0.08379196376,0.1300893128,1.592733264,-0.3020335436,0.04677625746,0.9467474818,1.689967036,-0.1191144437,0.07596867532,0.07933163643,1.72630918,-0.3636085987,0.05482548848,0.9146403074,1.707528472,-0.1967560798,0.1185668185,0.1186005101,1.747693419,-0.4241955876,0.08714267612,0.8917099833,1.676204085,-0.1500693858,0.1280971915,,0.5312309072,0.8798428164,-0.344927104
Straight,0.5277268887,0.3746259511,-0.5878407955,0.9998626113,0.5428282619,0.3151583672,-0.5396297574,0.9996349812,0.5587791204,0.3185291886,-0.5392423868,0.9997048974,0.5707806349,0.3222737014,-0.5397279859,0.9996389747,0.5019052625,0.3130691946,-0.5456035733,0.9996307492,0.4878101349,0.3149827421,-0.5461264253,0.9997226,0.4726006091,0.3171879351,-0.5468409061,0.9996699691,0.5854285359,0.3710143268,-0.2542798519,0.9996861219,0.4434157908,0.3693787456,-0.2870667577,0.9996370673,0.5520439744,0.4527593851,-0.4845436513,0.9997260571,0.4969114363,0.4533136189,-0.4919848442,0.9997075796,0.6933633089,0.8031075597,-0.1519340873,0.9992437363,0.3273891211,0.79240942,-0.1882866323,0.9991110563,0.8055550456,1.069851279,-0.096634157,0.3886663914,0.2061266452,1.050741434,-0.1698420644,0.2723717391,0.9017184973,1.580324292,-0.1415899694,0.08347284049,0.1260621846,1.596291065,-0.3670015931,0.04636917636,0.9461892247,1.68979156,-0.1526336819,0.07595770061,0.0741673857,1.726374865,-0.4345276356,0.05473755673,0.9144005775,1.705915809,-0.2299768478,0.1183911264,0.11263901,1.747583508,-0.495135963,0.08709546924,0.8914817572,1.674810171,-0.1784587801,0.1278098524,,0.5336056094,0.8799770054,-0.3622231067
Straight,0.5344452262,0.3744668365,-0.6425223351,0.9998514056,0.5486239195,0.315161854,-0.5899536014,0.9996102452,0.5635801554,0.3185529411,-0.5895973444,0.9996805787,0.5741289258,0.3223007917,-0.5900837183,0.9996094704,0.5083618164,0.3128624856,-0.5991295576,0.9996094704,0.4937895238,0.3147618473,-0.599715054,0.9997053146,0.4789976478,0.3170202076,-0.6004955173,0.9996540546,0.5873895884,0.3715219796,-0.2833177447,0.9996544123,0.4467114508,0.3694095314,-0.3323459625,0.999620676,0.5579738617,0.4528958201,-0.5304430127,0.9997017384,0.5025550127,0.4534736276,-0.54288131,0.9996933937,0.6946703792,0.8102862835,-0.158407405,0.9991486669,0.3285579085,0.7923959494,-0.2245203555,0.9990647435,0.8044570684,1.0710603,-0.09840530902,0.3835441768,0.2058805525,1.046863675,-0.1689046472,0.278667748,0.8784656525,1.589725971,-0.143262431,0.08083193749,0.124658227,1.596120596,-0.3506137133,0.04618968815,0.9155305624,1.702640414,-0.1515097469,0.07358457148,0.07344773412,1.725906491,-0.4175823331,0.05427811295,0.8849887848,1.717378736,-0.2286079824,0.1146507561,0.1121413112,1.747231245,-0.4738437235,0.08642797917,0.8642867208,1.683242679,-0.1786197275,0.1238233075,,0.5310746377,0.8820581937,-0.3861255697
Straight,0.5470847487,0.3726029694,-0.5813913941,0.9998557568,0.5586112142,0.3133536577,-0.5294322968,0.9996230006,0.5697556734,0.3168576062,-0.5290162563,0.9996895194,0.5796712041,0.3204801679,-0.5294972658,0.9996219873,0.5197777748,0.3101332486,-0.5446297526,0.9996228218,0.5037387609,0.3114798665,-0.5451859832,0.9997147322,0.4889415801,0.3137688935,-0.5458813906,0.9996669292,0.5884720087,0.3697434366,-0.2419074327,0.9996638298,0.4509432912,0.366890341,-0.3170021176,0.9996344447,0.5655509233,0.4516921043,-0.4771331251,0.9997121096,0.5145483017,0.4513900876,-0.4977981448,0.9997061491,0.6947118044,0.8095338345,-0.1378626227,0.999181509,0.3289727569,0.7924878597,-0.2238797843,0.9990953803,0.804559052,1.069524169,-0.06777760386,0.3874385059,0.2060992271,1.047596455,-0.1741112918,0.2837290466,0.882256031,1.580242634,-0.1277804375,0.08084181696,0.1292706877,1.58859098,-0.3353981972,0.04584908485,0.9210649729,1.690947652,-0.1357611716,0.07320682704,0.08291853964,1.731362224,-0.399941653,0.05363010615,0.8913601041,1.705930233,-0.2139210999,0.1140977591,0.1236193627,1.753241181,-0.4584751129,0.08546027541,0.8701950312,1.672392726,-0.1633825898,0.1230076477,,0.5373692296,0.8791019239,-0.3535075784
Straight,0.552442193,0.3677277863,-0.5695846081,0.9998582602,0.5641465187,0.3085134625,-0.5187522173,0.999633193,0.5741578937,0.3121727705,-0.5183013678,0.9996945858,0.585339427,0.3157516122,-0.5187781453,0.9996311069,0.5245304704,0.3043891788,-0.532399714,0.9996331334,0.5081037879,0.3054707348,-0.5329627395,0.9997206926,0.4932728708,0.3081142306,-0.5336886644,0.9996775389,0.5926388502,0.3668704629,-0.2358205318,0.9996684194,0.4543270469,0.3632504344,-0.3073535264,0.9996440411,0.5700806975,0.4482876658,-0.4671599865,0.9997205138,0.5195478201,0.4466170967,-0.485935539,0.9997176528,0.6952608824,0.8094556928,-0.1386678666,0.9991951585,0.3299154341,0.7910391092,-0.2213312685,0.9991178513,0.8037290573,1.06889534,-0.07094939798,0.38830024,0.206127286,1.04209578,-0.1687145531,0.2913691103,0.8828793764,1.580703855,-0.1291574687,0.08063473552,0.1285198778,1.591150522,-0.3155507445,0.04655409604,0.9224888682,1.691560388,-0.1356958449,0.07296883315,0.08058838546,1.731287003,-0.3781438172,0.05414788797,0.8925042152,1.706857085,-0.2143495977,0.1137755215,0.1207413226,1.753108025,-0.4392107427,0.0863475576,0.8711363077,1.673078418,-0.164533779,0.1225169078,,0.5396581177,0.8766543933,-0.3453200964
Straight,0.5519345403,0.3645626009,-0.5752173662,0.9998621345,0.5653060079,0.3056010604,-0.5247193575,0.9996446967,0.5753136873,0.309692204,-0.52430439,0.9997028708,0.5866983533,0.3134924769,-0.5248026848,0.9996423721,0.5253183842,0.3004661202,-0.5362658501,0.9996446967,0.5089353323,0.3011723757,-0.5368338227,0.9997286201,0.494358927,0.3034889698,-0.5375350714,0.9996876121,0.5939930677,0.3654917479,-0.2401343882,0.9996784925,0.455801785,0.3592486978,-0.3035432696,0.9996547699,0.5702178478,0.4462210238,-0.4718252718,0.9997305274,0.519331336,0.4430680573,-0.4879008234,0.9997286201,0.6956118345,0.8094531298,-0.1419914961,0.9992179871,0.3299212754,0.7909265161,-0.2160856426,0.9991214275,0.8089767694,1.068808794,-0.07617203891,0.3918992877,0.2055139244,1.047799706,-0.1658478677,0.2873297632,0.8865006566,1.58138597,-0.1320557594,0.082049191,0.1325834095,1.60407269,-0.3135872483,0.04549573362,0.9257124066,1.694148302,-0.1371738911,0.07370981574,0.08431208134,1.738392353,-0.3775834441,0.053063903,0.8929853439,1.709831715,-0.2157412767,0.1150642037,0.125536561,1.760911226,-0.4385501742,0.08494984359,0.8718803525,1.675350308,-0.1670305431,0.1236533374,,0.5412156311,0.8769811839,-0.3474955308
Straight,0.5506253839,0.3620819151,-0.560367465,0.9998697042,0.5648232102,0.3033004999,-0.5110221505,0.9996646643,0.5753282309,0.3075938523,-0.5105903149,0.9997190237,0.5868687034,0.3113999963,-0.5110960603,0.9996622801,0.5242494345,0.2982334793,-0.5209073424,0.9996646047,0.5080373287,0.2992409468,-0.5214551687,0.9997437596,0.4936770499,0.3016538918,-0.5221365094,0.9997056723,0.595177114,0.3645366132,-0.2342983782,0.9996954203,0.4563648701,0.3581152558,-0.2880082726,0.9996741414,0.5701320171,0.4443185031,-0.4604413509,0.9997454882,0.5187772512,0.4407799542,-0.4740445018,0.9997445345,0.6961992979,0.8096384406,-0.1406074166,0.9992447495,0.3300356567,0.7915587425,-0.2075743973,0.9991521239,0.806753993,1.070495367,-0.06878514588,0.3892633319,0.2054092586,1.047780156,-0.1441332996,0.2855929434,0.8873087764,1.581373572,-0.09922361374,0.08265364915,0.1319843084,1.608910918,-0.2741881013,0.0450992696,0.9270022511,1.693509579,-0.09927076846,0.07452312857,0.08228892833,1.739464998,-0.3357771039,0.05293127894,0.8947604299,1.709410548,-0.1770353019,0.1164305806,0.1234064251,1.762706637,-0.3964339793,0.084970586,0.8731325269,1.675198078,-0.1327054054,0.1248458922,,0.5410155657,0.8764228157,-0.3268228204
Straight,0.5518026948,0.3598909676,-0.5452259183,0.9998752475,0.5661287904,0.3017104268,-0.4928732514,0.9996820688,0.5763300657,0.3062360883,-0.4924632013,0.9997315407,0.5881929398,0.3102897406,-0.4929193854,0.999679625,0.525575161,0.2959011793,-0.5064355731,0.9996832013,0.5092610121,0.296641916,-0.5069614649,0.9997568727,0.4948200285,0.298808068,-0.5076182485,0.9997226596,0.5957819223,0.3639646173,-0.2099593133,0.9997105002,0.4571706653,0.3556635976,-0.2794266641,0.9996925592,0.570777595,0.4426393211,-0.4437485337,0.9997580051,0.5193169713,0.437880069,-0.4623551965,0.99975878,0.6962113976,0.8095960617,-0.1194700226,0.9992725253,0.3298095763,0.7914828062,-0.2069450319,0.9991800189,0.8070014715,1.067553163,-0.05662693828,0.3924406767,0.2048684359,1.048420668,-0.1797337234,0.283472538,0.8986526728,1.57723248,-0.1031336635,0.08283159137,0.1322089285,1.617505908,-0.3656340837,0.04457251355,0.9400163889,1.688390136,-0.106309101,0.07441235334,0.08229655772,1.74725616,-0.4313293993,0.05254370347,0.9099059105,1.702130079,-0.1832888275,0.1160902455,0.1233733147,1.769415617,-0.4958721101,0.0843263492,0.8877965212,1.668899059,-0.1370525658,0.1245519668,,0.5439681374,0.8753412786,-0.332971919
Straight,0.5525096655,0.3565208316,-0.5382333398,0.9998798966,0.566196084,0.298925072,-0.4889186919,0.9996914864,0.576430738,0.3032892644,-0.4884416163,0.9997410774,0.5882200599,0.3070829511,-0.4889976084,0.9996899366,0.5256778598,0.293486774,-0.5007782578,0.9996923804,0.5093686581,0.2943556309,-0.5013324618,0.9997654557,0.4949149191,0.2966372073,-0.5019248128,0.999730885,0.5958105326,0.3619816303,-0.2150332928,0.9997191429,0.457254082,0.3543145657,-0.2762325406,0.9997031093,0.571490407,0.440372169,-0.4395054877,0.9997664094,0.5203470588,0.4358489215,-0.4557863176,0.9997673631,0.6970542073,0.8103123307,-0.1196533814,0.9992974401,0.3294711411,0.792086482,-0.2047604769,0.9992002249,0.8069788814,1.069343805,-0.03597985581,0.3920511901,0.2040884197,1.052385926,-0.1249762997,0.2845582068,0.8879309893,1.587500811,-0.05378946662,0.08314101398,0.1365403235,1.622325301,-0.2126959115,0.04370433092,0.9272386432,1.701377153,-0.04993834347,0.07431241125,0.0892271772,1.752565026,-0.2714037597,0.05126804858,0.8951963186,1.719680786,-0.1259899735,0.1160615981,0.1309019625,1.776740313,-0.3268222511,0.08249048144,0.8743619919,1.683836579,-0.08552874625,0.124367103,,0.54260046,0.8777713423,-0.2957601315
Straight,0.5523084998,0.3555598855,-0.5464596748,0.9998827577,0.5660629869,0.2981082499,-0.497279793,0.9997013807,0.5763449073,0.3024989367,-0.4968178272,0.9997455478,0.5880378485,0.3062337637,-0.4973664284,0.9996996522,0.5256114006,0.2927330136,-0.5081094503,0.9997029305,0.5093865395,0.2935704887,-0.5086596608,0.9997708201,0.4950276017,0.2957530022,-0.5092827082,0.9997404218,0.5957428217,0.3611748517,-0.2212823629,0.9997251034,0.4574359059,0.3535007834,-0.2775322199,0.999710381,0.5713657737,0.4395430386,-0.4464940131,0.9997755885,0.5202833414,0.4348509908,-0.4610856175,0.999777317,0.6970722079,0.8110483885,-0.1209765822,0.9993014932,0.3288982213,0.7935155034,-0.2071550786,0.9991992116,0.8073975444,1.064463258,-0.04601400346,0.3902574182,0.2025170624,1.054013729,-0.1320655644,0.2827194035,0.8908317685,1.551288009,-0.08977475762,0.08518692106,0.1360595673,1.621995568,-0.2326163948,0.04419929162,0.9418660402,1.676411748,-0.09125229716,0.07645497471,0.0883525908,1.751708865,-0.303199321,0.05209481344,0.9092181325,1.691684008,-0.1689497083,0.1197113618,0.1295802891,1.776171327,-0.3559431732,0.08412627876,0.8870530128,1.660629988,-0.123267293,0.1284169555,,0.5443842756,0.8721116998,-0.3109810877
Straight,0.5525429249,0.3557381928,-0.5494948626,0.9998836517,0.5664875507,0.2981320322,-0.4999740124,0.9997048378,0.5766472816,0.3025374413,-0.499494493,0.9997477531,0.5884296298,0.3063007593,-0.5000474453,0.9997032881,0.5262074471,0.292375952,-0.5095161796,0.9997071028,0.5098639727,0.2928971946,-0.5100790858,0.9997736216,0.4954625666,0.2947761416,-0.51070714,0.9997441769,0.5957664847,0.3611338735,-0.2229856551,0.9997283816,0.4575703144,0.3520269096,-0.2909604609,0.999715209,0.5713609457,0.4397471845,-0.4495390058,0.9997791052,0.5203538537,0.435025692,-0.4626950622,0.9997817278,0.6975365281,0.8114916682,-0.1244436726,0.9993069172,0.3279346526,0.7949816585,-0.21464701,0.9991933107,0.8088933825,1.064056635,-0.04835773259,0.3867588043,0.2026343346,1.057160139,-0.156394273,0.2779483795,0.8912009001,1.55547905,-0.0714540258,0.08540911227,0.1451779902,1.625911593,-0.286491245,0.04342533275,0.94144696,1.677610636,-0.0696772784,0.07670032233,0.09896446764,1.754860044,-0.3550514579,0.05145404488,0.9089859724,1.692932844,-0.1445932686,0.1199921817,0.1391674876,1.777977347,-0.4052830637,0.08318823576,0.8867962956,1.66159308,-0.1030560285,0.1288609058,,0.5458832701,0.8729430031,-0.3174973845
Straight,0.5476175547,0.3575433195,-0.5528256297,0.9998803139,0.5634202361,0.2987164259,-0.5016223192,0.9996997118,0.5757410526,0.3031895459,-0.5011652708,0.9997413754,0.5871542692,0.3071212471,-0.5016828179,0.9996996522,0.5218004584,0.2931399047,-0.5131983161,0.9996997714,0.5064892173,0.2938824892,-0.5137625337,0.9997653961,0.4914728701,0.2957977653,-0.5143890381,0.9997372031,0.5962413549,0.3617890775,-0.2322061062,0.9997215867,0.4561524391,0.3523129523,-0.2865425944,0.999702692,0.5692324042,0.4411424994,-0.4517280161,0.9997781515,0.5151150823,0.4373174906,-0.4657275677,0.9997790456,0.6978315711,0.8116095066,-0.1368125975,0.9993005395,0.3278467059,0.794973433,-0.1907106936,0.9991680384,0.8068329692,1.066957474,-0.0525655672,0.3842097223,0.2036400735,1.057253361,-0.0849288404,0.2734861076,0.8788995743,1.576566696,-0.0780448392,0.0842788592,0.143491298,1.622122526,-0.1894766837,0.04187181219,0.9216419458,1.694894433,-0.07609589398,0.07589498162,0.0963870585,1.747738957,-0.248738125,0.04973926395,0.8858624697,1.712659597,-0.1507382542,0.1188796684,0.1368288547,1.77331233,-0.3025100827,0.08059015125,0.8645607233,1.678818464,-0.1089462861,0.1274610758,,0.5406481901,0.8763117953,-0.3024735488
Straight,0.5311279297,0.3579596579,-0.6344207525,0.9998852611,0.5502545238,0.2987769544,-0.5833789706,0.9997106194,0.5644055605,0.3031842709,-0.5830045938,0.9997513294,0.5794571042,0.3071572781,-0.5834252834,0.9997099638,0.5081496239,0.2939248085,-0.5879990458,0.9997114539,0.4928177893,0.2952353358,-0.5884969831,0.9997748733,0.4774348736,0.297925055,-0.5891920328,0.9997469187,0.5940531492,0.3616122007,-0.2865986228,0.999732554,0.4507853091,0.3531393707,-0.3123174608,0.9997146726,0.5576367378,0.4411924183,-0.5253023505,0.9997853637,0.5027960539,0.4380065799,-0.5312380791,0.9997861981,0.6972874403,0.811537087,-0.167755276,0.9993109107,0.3277686238,0.7949760556,-0.2060229033,0.9991846681,0.8085349798,1.067018867,-0.1114786416,0.3929158449,0.2050972283,1.057242632,-0.1758372188,0.2723329961,0.9411878586,1.564075947,-0.1807031631,0.0857861042,0.1382129788,1.598041415,-0.3866528869,0.04270975664,0.9956071973,1.667119026,-0.1858743429,0.07689876109,0.09454366565,1.746723771,-0.4544674754,0.05062061921,0.9673698545,1.683089495,-0.2682157457,0.1205515265,0.1342583597,1.770710588,-0.5160807371,0.08194135129,0.9409621358,1.655552626,-0.2176355422,0.1296607256,,0.5481704081,0.8711000654,-0.3943680958
Straight,0.5146392584,0.3646970987,-0.6912465096,0.9998811483,0.5384117365,0.301769644,-0.6458802223,0.9996969104,0.5529605746,0.3055146337,-0.6455809474,0.9997448325,0.570628643,0.3095706701,-0.6460809708,0.9996964931,0.4927611947,0.3005713224,-0.6451340914,0.9996951222,0.4762989581,0.3031300604,-0.6456940174,0.9997662902,0.4626143873,0.3066572249,-0.6464183927,0.9997301102,0.5904905796,0.3626859486,-0.3497308195,0.9997246265,0.4397595823,0.359564513,-0.348569572,0.9997029305,0.546498239,0.4455484152,-0.5798782706,0.9997749329,0.4868919849,0.4468685091,-0.5787355304,0.999773562,0.6972682476,0.8112066388,-0.2037385702,0.999307096,0.3282497227,0.7948309183,-0.2117576599,0.9991689324,0.805118084,1.070091963,-0.1209707037,0.3936437368,0.2050243914,1.054929614,-0.1437156498,0.273581326,0.8980950117,1.594383359,-0.1634041667,0.08421164006,0.1292811334,1.597781181,-0.3113665283,0.04159880802,0.9372954369,1.709815502,-0.1666376591,0.07509092242,0.08325252682,1.739477873,-0.3713546395,0.0489660874,0.9033155441,1.726446152,-0.2464806587,0.1177724898,0.1234266758,1.765948296,-0.4354740083,0.07931596041,0.8829485774,1.689636111,-0.19814156,0.1264926344,,0.5302377496,0.8800511658,-0.4089086885
Straight,0.4940041602,0.3669106662,-0.6609486341,0.9998750687,0.5172073245,0.3031735122,-0.6209841371,0.9996787906,0.5354660749,0.3063819706,-0.6206461191,0.9997339249,0.5517817736,0.3101261854,-0.6211613417,0.9996812344,0.4732582569,0.304803431,-0.6170535088,0.999671936,0.4604486525,0.3082439303,-0.6176099181,0.9997500777,0.44507128,0.3126839995,-0.6183154583,0.9997053146,0.5807856917,0.3630010486,-0.3586741388,0.9997102022,0.4318297505,0.3653737009,-0.3450384438,0.9996752143,0.5294108987,0.4465037882,-0.5583349466,0.9997649193,0.4692366123,0.4487935007,-0.5555378199,0.9997549653,0.6971866488,0.811047256,-0.2266945094,0.9992789626,0.3287388682,0.794290483,-0.1833666265,0.9991536736,0.8014694452,1.073381305,-0.1370867789,0.3798635304,0.2052079886,1.046945572,-0.03336546943,0.2690495551,0.8708459139,1.608940959,-0.1599793434,0.08136000484,0.1293427348,1.592560887,-0.12859492,0.04070465267,0.9081574678,1.722462416,-0.150061205,0.07311438769,0.08270339668,1.725349545,-0.1809256524,0.04788692296,0.8736752272,1.740354538,-0.2285866439,0.1148421839,0.1232495457,1.755779982,-0.2363197505,0.07751061022,0.8538159132,1.702498913,-0.1889518201,0.1233032495,,0.5164951648,0.8822548904,-0.365828963
Straight,0.4645251632,0.3745408654,-0.7459269762,0.9998753667,0.4926662445,0.3087129593,-0.719129324,0.9996750951,0.5096338391,0.3102320135,-0.7188352346,0.999735117,0.526910305,0.3129021823,-0.7192869186,0.9996783137,0.4522233605,0.3131931126,-0.6943813562,0.999663353,0.4392190576,0.3168230355,-0.6948996782,0.9997456074,0.4285844266,0.3208066225,-0.6955727935,0.9996914268,0.5656861663,0.3642035127,-0.4732862413,0.9997112751,0.4272342324,0.3694527149,-0.3628819585,0.9996627569,0.5020309091,0.4503308237,-0.650485158,0.9997642636,0.4465734959,0.4551361799,-0.617408216,0.9997428656,0.697101295,0.8110405803,-0.3306031227,0.9992675781,0.3295438588,0.7939532995,-0.1853062361,0.9991489053,0.8136078715,1.080121875,-0.270260483,0.3731887341,0.2059749067,1.040903687,-0.05625965074,0.2629719973,0.9024479985,1.607087255,-0.2825909555,0.08143237233,0.1294708401,1.592678547,-0.1817597002,0.04169283807,0.9511530995,1.720646858,-0.2824406028,0.07378584892,0.08103594184,1.723816633,-0.2414826453,0.04891349375,0.9106834531,1.739519954,-0.3633436859,0.1162626743,0.1219858974,1.754723072,-0.2939118147,0.07886911184,0.893641293,1.700536728,-0.3134388924,0.1248897165,,0.5132697116,0.8846073869,-0.4497041657
Straight,0.4552052617,0.3758719862,-0.6672799587,0.9998664856,0.4832652509,0.3098126352,-0.6842576265,0.9996449947,0.5002583265,0.3108299375,-0.6834408045,0.999717772,0.5169223547,0.3131663501,-0.6847642064,0.9996541739,0.4432280064,0.3148655891,-0.6135575771,0.9996261597,0.430885464,0.3184578121,-0.6142609715,0.9997209311,0.4218715727,0.3224197626,-0.6146456599,0.9996496439,0.5567592978,0.3642199337,-0.4082473814,0.9996942878,0.4231474996,0.3707344532,-0.2880524397,0.9996218681,0.4918808341,0.4504788816,-0.6226023436,0.9997524023,0.4377368987,0.4555601478,-0.5361658931,0.9997137785,0.6971055269,0.8110660315,-0.2906101942,0.9992312193,0.3293525577,0.7948704958,-0.120079264,0.9991152287,0.8135715723,1.085016966,-0.2361964732,0.3580809534,0.2053597867,1.044242859,0.05883513764,0.2561903894,0.896873951,1.611582756,-0.2319691926,0.08050231636,0.1333897561,1.596115589,-0.04738253355,0.04219605774,0.9449647069,1.722270489,-0.2304216176,0.07422110438,0.08307811618,1.726819873,-0.09602533281,0.04955461994,0.9047611356,1.742428422,-0.3066684604,0.117277503,0.1268991083,1.760233402,-0.1490216106,0.07973589748,0.8860881925,1.704645634,-0.260863632,0.1259234548,,0.5083002353,0.8866231821,-0.3785308198
Straight,0.4399251938,0.3767802417,-0.5644593239,0.9998522401,0.4692031443,0.3101768196,-0.5642445683,0.9996046424,0.4862535596,0.3108338416,-0.5638183355,0.9996945262,0.5031462312,0.3129369617,-0.5644599199,0.9996160269,0.4327594638,0.3166009188,-0.5128480196,0.9995750785,0.4243866801,0.3205758631,-0.5134364367,0.9996917844,0.4165007472,0.3250541389,-0.5140601397,0.9996033311,0.5479477644,0.3634262085,-0.3823010325,0.9996699691,0.4231057763,0.3706712127,-0.2146163285,0.9995856285,0.4775356352,0.4500868618,-0.5177138448,0.9997244477,0.4290189147,0.4554930031,-0.4493290484,0.9996622801,0.6967571974,0.8100312948,-0.2880838513,0.999153018,0.329843998,0.7954232693,-0.08729060739,0.9990748763,0.8135730028,1.087244511,-0.2769963145,0.3412150741,0.2054351121,1.044480443,0.04600041732,0.2473822385,0.8899044991,1.612574935,-0.273194313,0.07708251476,0.1335665286,1.596304655,-0.0931128338,0.04204696789,0.9372494817,1.721712232,-0.2768921256,0.07192777842,0.08172429353,1.726467848,-0.1441062689,0.04954635724,0.8980558515,1.74125886,-0.3414302766,0.1139568761,0.1264573783,1.759698033,-0.200712353,0.07960794121,0.8779813647,1.704470634,-0.298224628,0.1222462356,,0.5018332645,0.8869228539,-0.3452422797
Straight,0.4319851995,0.3771351576,-0.5783753395,0.9998410344,0.4617330134,0.3103519082,-0.5669196248,0.9995666742,0.4771619439,0.3108226955,-0.5665001273,0.9996734262,0.4944090843,0.3126657307,-0.5671218634,0.9995808005,0.427359581,0.317879498,-0.5300452709,0.9995267391,0.4206143022,0.3223112822,-0.5306249857,0.9996640086,0.4126297832,0.3273292482,-0.5312777758,0.9995589256,0.5405498147,0.3631588817,-0.4203750193,0.9996467233,0.422554642,0.3707691729,-0.2396821529,0.999552846,0.4690011144,0.4494030774,-0.5205023885,0.9997021556,0.4243300855,0.4552904665,-0.4664172232,0.9996198416,0.6961025,0.8074641824,-0.3308491111,0.999086678,0.330667913,0.7953143716,-0.1087563857,0.9990603924,0.8108963966,1.087009072,-0.3147270381,0.3226728737,0.2052650452,1.042724013,0.03940455243,0.2401137501,0.8542846441,1.607062221,-0.3163468242,0.07351424545,0.1333344281,1.593036532,-0.09253645688,0.0425491333,0.9030461311,1.724051118,-0.3235446215,0.06963934749,0.07915300876,1.716168046,-0.1462416053,0.05040059239,0.8639261127,1.744247556,-0.3858281374,0.1107008085,0.1250963509,1.749489665,-0.2007995546,0.08094717562,0.843421936,1.707639933,-0.3404502571,0.1184639558,,0.4921601377,0.8859692649,-0.3653871459
Straight,0.4316213131,0.3771489859,-0.5845207572,0.9998289347,0.4613905549,0.3103682697,-0.5760338306,0.9995365739,0.476947844,0.3107436001,-0.575558424,0.9996515512,0.4940371513,0.3123638034,-0.5762547255,0.9995520711,0.4267425537,0.3183220625,-0.5384637713,0.9994869828,0.4199899733,0.3230181038,-0.5390395522,0.9996346235,0.411895901,0.3283338845,-0.5396990776,0.9995173216,0.5397170782,0.3630988598,-0.4239989817,0.9996237755,0.4217126369,0.371117115,-0.2377749979,0.9995163083,0.4683841169,0.4488068521,-0.5271734595,0.9996878505,0.4232522845,0.4550684094,-0.474424839,0.9995878935,0.6956714988,0.8081299663,-0.3260293901,0.9990208149,0.3305972815,0.7952953577,-0.08178182691,0.9990196824,0.810895741,1.087159276,-0.3098302484,0.3066510558,0.2051976919,1.035660982,0.08600149304,0.234963268,0.8550674319,1.609735131,-0.3167794645,0.07128663361,0.1336631477,1.589563131,-0.07543664426,0.04382493347,0.8998664021,1.723630071,-0.3231989443,0.06861755252,0.07917003334,1.711849809,-0.1304098815,0.05189370364,0.8613932729,1.743238211,-0.3867514133,0.1094573736,0.125363484,1.744651675,-0.1848823577,0.0832644254,0.841281414,1.706843853,-0.3402490616,0.1168120652,,0.4915390367,0.8851885186,-0.3628313707
Straight,0.4331313968,0.3771170378,-0.4680055678,0.9998045564,0.4618529677,0.3101783097,-0.4595268667,0.9994425774,0.4777076244,0.3101609051,-0.4591458738,0.9996054769,0.4945142269,0.3114189506,-0.4596759379,0.9994719625,0.4264926016,0.3182373941,-0.4284676909,0.9993813634,0.419595778,0.3228755593,-0.4290374219,0.9995840788,0.411082834,0.3281335533,-0.4297217727,0.9994321465,0.5376582146,0.361821413,-0.3326141238,0.9995658398,0.4189380109,0.3709999025,-0.1785201132,0.9994518161,0.4694071412,0.4476675987,-0.4152812958,0.9996343255,0.4232030511,0.4543051422,-0.3724783063,0.9995070696,0.6934446096,0.8043569922,-0.2641410828,0.9989725351,0.3294327855,0.7952929139,-0.07426913828,0.9990109801,0.8060389757,1.084571719,-0.2228935957,0.2907740772,0.2051828355,1.038768649,0.1032211632,0.229627952,0.8561350703,1.609177113,-0.1586318165,0.06772823632,0.1370681524,1.594845772,0.03907766193,0.04283079132,0.8997128606,1.718168259,-0.1444944739,0.06580609083,0.08256751299,1.716502428,-0.003413692582,0.05074748769,0.8634359241,1.739763498,-0.205352217,0.1051148772,0.1292025298,1.750405192,-0.0503019467,0.08137541264,0.8428323865,1.703787208,-0.1799674481,0.1120668799,,0.4917562496,0.8849343414,-0.2542564344
Straight,0.4342288077,0.377466172,-0.490653038,0.9997802377,0.4624243677,0.3104946911,-0.4823559225,0.9993592501,0.4785509706,0.3103122711,-0.4818692207,0.9995539188,0.495124191,0.3114769757,-0.482524693,0.9993953109,0.4268752933,0.3187662959,-0.4510330558,0.9992815256,0.419688791,0.3234591186,-0.4516834617,0.9995250106,0.411223799,0.3288211823,-0.4523333907,0.9993435144,0.537555933,0.3618136048,-0.3331018686,0.999502182,0.4187381864,0.3710777164,-0.196968466,0.9993749857,0.4703359008,0.4476201236,-0.4350591302,0.9995920658,0.4234240055,0.4542380571,-0.3922378123,0.9994413257,0.6933287382,0.8043812513,-0.2669567168,0.9988735914,0.3294584453,0.7951826453,-0.08708929271,0.9989855289,0.804066956,1.086450458,-0.2216221541,0.2749113142,0.2046305686,1.035932541,0.0969549939,0.2275111824,0.846992135,1.623022437,-0.1721894443,0.06479289383,0.1293103993,1.594688296,0.04118209332,0.04331840575,0.8908967972,1.729682088,-0.1640620977,0.06380940974,0.07170289755,1.715669036,-0.003132579383,0.05114991963,0.8538765907,1.755473137,-0.2275751084,0.1023181826,0.1201449856,1.750441313,-0.0526959002,0.08201290667,0.8327828646,1.718770146,-0.1954303682,0.1089495048,,0.4888800738,0.887510889,-0.2682925743
Straight,0.4352389872,0.3778165579,-0.5130375624,0.9997704029,0.4638584256,0.3105590045,-0.5218904018,0.9993274212,0.4802750051,0.3103222251,-0.5214301348,0.9995360374,0.4966753125,0.3114721775,-0.5222125649,0.9993656278,0.4278692603,0.3187490702,-0.4694777131,0.9992411137,0.4203003943,0.3233943582,-0.470241636,0.9995002151,0.4119745195,0.3287097216,-0.4706953168,0.9992967248,0.5388500094,0.3615784645,-0.3904351592,0.9994854927,0.4188977182,0.3710519075,-0.2048261464,0.99933815,0.4710552096,0.4476932883,-0.4728931785,0.9995775223,0.4237450957,0.4543393552,-0.4003016949,0.9994080067,0.6934969425,0.8059284687,-0.3164881468,0.9988359809,0.3294807076,0.7964935899,-0.09144456685,0.9989465475,0.8062548637,1.086304069,-0.2922536731,0.2644679248,0.204742834,1.03475368,0.07984091341,0.2240947783,0.8505837321,1.622419357,-0.2508609295,0.06346872449,0.1286893189,1.595430613,-0.01638219133,0.04367630929,0.8948342204,1.729679585,-0.2479373515,0.06332093477,0.0700712651,1.716179252,-0.06380471587,0.05141276121,0.8547415733,1.754455924,-0.3093605638,0.1019544229,0.1188477427,1.752419233,-0.1164414063,0.08233974874,0.8340294957,1.718182683,-0.2721062303,0.1085606441,,0.4897505743,0.8876332993,-0.3115763805
Straight,0.4380756915,0.3788335919,-0.4897630215,0.9997484684,0.4662490785,0.3112435341,-0.4890964031,0.9992564321,0.4826834798,0.3109950721,-0.4885995388,0.9994940162,0.4988991618,0.3121288419,-0.4893152714,0.9993133545,0.4297903478,0.318982482,-0.4534724355,0.9991542697,0.4215013981,0.3234676719,-0.45409742,0.9994437695,0.4131325781,0.3286652565,-0.4546741545,0.9992099404,0.5400793552,0.3623372316,-0.3686339557,0.9994403124,0.4189023077,0.3715658784,-0.2059020549,0.9992601871,0.4732294083,0.4492332935,-0.4396075308,0.9995523095,0.4252208769,0.4554230273,-0.3908762336,0.9993574619,0.6935018897,0.8067524433,-0.2994294465,0.9988263249,0.3292669654,0.8000478148,-0.08246652782,0.9989372492,0.8023203015,1.090047121,-0.209233135,0.2560201287,0.2059106082,1.043538213,0.1521013677,0.2201222479,0.8425909877,1.628149033,-0.1187193245,0.06143708155,0.1449832022,1.601559401,0.1597968042,0.04249190539,0.8845034838,1.736472011,-0.09858869016,0.06181991845,0.09286157042,1.726601839,0.1272251308,0.04991670325,0.8473626971,1.764580846,-0.164392814,0.09966993332,0.141382724,1.766663909,0.0837790668,0.07984407991,0.8272385597,1.727012157,-0.1395029724,0.1059602872,,0.4918039397,0.8915591213,-0.2415212982
Straight,0.4397694468,0.3788569868,-0.5102314353,0.9997447729,0.4678031802,0.3114625216,-0.5004780293,0.9992551804,0.4842639565,0.3112306595,-0.499953568,0.9994912148,0.50039047,0.3124112487,-0.5006088018,0.9993153214,0.4308208525,0.3189991713,-0.471345365,0.9991441369,0.4220668674,0.3234356046,-0.47196275,0.9994315505,0.4137037694,0.3285955191,-0.4725704789,0.9991941452,0.5409606695,0.3624161482,-0.3725925386,0.9994421601,0.4186033607,0.3717536926,-0.2116843164,0.9992384315,0.4748753905,0.4492343366,-0.4497009814,0.9995552301,0.4258471429,0.4553925693,-0.4092535079,0.9993493557,0.6933321357,0.8067661524,-0.3013625145,0.9988363385,0.3294554949,0.7999303937,-0.07240888476,0.9989276528,0.8030052185,1.089917064,-0.2405149639,0.2507280111,0.2061178982,1.03956449,0.1397136748,0.2153433114,0.8430346251,1.627687573,-0.141812101,0.05968717486,0.1448532641,1.598190427,0.08525939286,0.04122908413,0.8855882883,1.736704469,-0.1130829081,0.06028316543,0.09148418158,1.722059011,0.04494703189,0.04833645001,0.850033462,1.763677835,-0.1692937165,0.09743493795,0.1396876574,1.762634635,-0.004034291022,0.07730436325,0.829421401,1.726274252,-0.1562018394,0.1035477072,,0.492505397,0.89078158,-0.2635987678
Straight,0.4415133893,0.3828511238,-0.5899634957,0.9997433424,0.470046699,0.3153050542,-0.5717338324,0.9992666841,0.4866044521,0.3153445125,-0.5713681579,0.9994904995,0.5033611059,0.3168132007,-0.5720159411,0.9993255138,0.4310637414,0.3211350143,-0.5448077917,0.9991540909,0.422927618,0.3248810172,-0.5453954339,0.9994254112,0.414429903,0.329457283,-0.5460332632,0.9991957545,0.5430008173,0.3647242188,-0.3847728372,0.999443531,0.4182845056,0.3740687966,-0.2475112975,0.9992209077,0.4781347811,0.454548806,-0.5119103789,0.9995626211,0.4264248908,0.4598740935,-0.4747187495,0.9993556142,0.6937186122,0.8076380491,-0.2963455617,0.9988336563,0.329534471,0.8020629287,-0.07622519881,0.9988988042,0.8028504252,1.089459538,-0.2348496169,0.2477451116,0.206586048,1.036871552,0.1162709445,0.2133747041,0.849342525,1.626900077,-0.1587218791,0.05937071517,0.1446071267,1.597906113,0.04730213061,0.04060630873,0.8894518018,1.736076236,-0.1418652833,0.06021896377,0.09080997854,1.722013831,0.005468623713,0.04757767916,0.8539935946,1.762886405,-0.2039036751,0.09740187973,0.1385664642,1.762269378,-0.04585754871,0.07593873888,0.8334605098,1.725702763,-0.1781593859,0.1035808325,,0.49403243,0.8922177269,-0.3057780741
Straight,0.4482807219,0.387620002,-0.6321181655,0.999745667,0.4772725701,0.3192591369,-0.6049641967,0.9992807508,0.4933878481,0.3193630576,-0.6046971083,0.9994962215,0.511768043,0.3209919631,-0.6052547693,0.9993389249,0.4351600111,0.3250381947,-0.5866105556,0.9991726279,0.4238812923,0.3285813332,-0.5871375799,0.9994312525,0.414624542,0.3324133456,-0.5878232718,0.9992080331,0.5465215445,0.3665721416,-0.3829466701,0.99945122,0.4181288779,0.3770669699,-0.282966733,0.9992204905,0.4862365127,0.4596753418,-0.5408258438,0.9995698333,0.4301756918,0.4647946656,-0.5152375102,0.9993667603,0.6937146187,0.8061573505,-0.2710833549,0.9988487959,0.3291902244,0.8022888899,-0.1076686159,0.9988847971,0.8034843206,1.088006258,-0.1765488684,0.2485218048,0.2074042112,1.037687898,0.09449745715,0.209144026,0.8650981784,1.616256356,-0.12488316,0.05896309391,0.1492916942,1.607319593,0.03718771785,0.03903630003,0.9045630693,1.724199772,-0.1117008775,0.05957300961,0.09798023105,1.736425757,-0.01016958244,0.04576735571,0.8710883856,1.746700406,-0.1826326251,0.0963377431,0.1419819295,1.774410009,-0.05559685826,0.0730060935,0.8504786491,1.711002111,-0.1498302519,0.102645196,,0.4999869622,0.8932650252,-0.3176823374
Straight,0.4604252279,0.3932952881,-0.6806242466,0.9997588992,0.4878850877,0.3243885338,-0.6521593332,0.9993246198,0.5061216354,0.3253555,-0.6518000364,0.9995231628,0.5239778757,0.3273176253,-0.6524820328,0.9993804693,0.4428859651,0.3280400038,-0.6341931224,0.9992213845,0.4291556776,0.3314146399,-0.6347800493,0.9994581342,0.4168894887,0.3347475231,-0.6353438497,0.9992491007,0.5548611879,0.37251544,-0.3997083902,0.9994837046,0.4180792868,0.3818127215,-0.3155347705,0.9992522001,0.4979101121,0.4706991911,-0.5819778442,0.9995967746,0.4366822839,0.4731731415,-0.5576137304,0.999404192,0.6937102079,0.8064318299,-0.2713363171,0.9989126921,0.3290420771,0.8024445176,-0.1136318222,0.9988923669,0.8043395877,1.085868955,-0.1817091852,0.2585713565,0.2079059333,1.037639737,0.09421467036,0.2078734785,0.8715586662,1.616053462,-0.1415180415,0.06379004568,0.1511421502,1.60625267,-0.0104529541,0.03876655921,0.911072135,1.724196315,-0.1311618537,0.06365352869,0.1026757136,1.736231327,-0.05756884068,0.045478113,0.8771221042,1.746356487,-0.1979212761,0.1025362462,0.14426893,1.773466706,-0.1107995138,0.07250685245,0.8564209938,1.710566998,-0.1660880744,0.1093269959,,0.5056423785,0.8958303915,-0.3492813916
Straight,0.4745899141,0.4053763449,-0.8040237427,0.9997733831,0.4992163777,0.3372277915,-0.7712575197,0.9993649721,0.5180188417,0.3380260766,-0.7709999681,0.9995483756,0.5341538191,0.3395047188,-0.7713980675,0.9994136691,0.4529060721,0.3375813365,-0.7608811259,0.999271214,0.4389424324,0.3394924402,-0.7614215612,0.9994895458,0.4234663546,0.3420347273,-0.7620490193,0.9992944598,0.5617703199,0.3810823262,-0.4903197289,0.9995109439,0.4183258414,0.3885725737,-0.4427461624,0.9992947578,0.5090891123,0.4853096008,-0.6947775483,0.9996165633,0.4466162622,0.4872070849,-0.6802573204,0.9994382858,0.6930623651,0.8060920835,-0.3236665428,0.9989525676,0.3296539485,0.8018242121,-0.2611354291,0.9989213347,0.8064789772,1.080088735,-0.2389585227,0.2739359736,0.2072999775,1.037317872,-0.1635046005,0.2201455235,0.910366416,1.606601477,-0.2507697642,0.07017758489,0.1213312149,1.596333504,-0.3351437449,0.0432045646,0.9580817223,1.715705156,-0.249276787,0.06848369539,0.06497944146,1.720826268,-0.3935668766,0.0498842299,0.9271051288,1.732264042,-0.3324742913,0.1097000912,0.1002787501,1.74835217,-0.4641802907,0.0790136531,0.9026039243,1.69969666,-0.2839208245,0.118129462,,0.5135607824,0.8966598727,-0.5003058836
Straight,0.4853590131,0.4204465747,-0.8436385393,0.9997842312,0.5070451498,0.3525520265,-0.8104964495,0.9993997812,0.5253064036,0.3534342945,-0.8101950884,0.9995654821,0.540361762,0.3541594744,-0.8106157184,0.9994424582,0.4606357217,0.3536033928,-0.8039368391,0.9993155599,0.4464274049,0.3556009531,-0.8044141531,0.9995141625,0.4298269153,0.3578802645,-0.8051563501,0.9993374348,0.5657496452,0.3928653598,-0.5200340152,0.9995310903,0.418515861,0.4012849629,-0.4896463752,0.999330461,0.5179037452,0.5018106699,-0.7297722697,0.9996327758,0.4558295608,0.5058425665,-0.720240593,0.9994693398,0.6920610666,0.8046619892,-0.3467791677,0.998980999,0.3307670355,0.7946841717,-0.3115028143,0.9989554286,0.806060791,1.067720175,-0.2656819224,0.2905928195,0.2085075825,1.036488175,-0.2281438559,0.231198445,0.9145134687,1.574475288,-0.3056976497,0.07534810156,0.1229649559,1.595731616,-0.4118822217,0.04701964557,0.9619803429,1.677099228,-0.3120988011,0.07262478024,0.0667155236,1.719692707,-0.474065125,0.05427250266,0.9339847565,1.684413791,-0.394334048,0.1155464798,0.1042940989,1.740759254,-0.5455306172,0.08541733027,0.9091542363,1.657492399,-0.3399184644,0.1252432913,,0.5183620473,0.8955772424,-0.5492627763
Straight,0.4929410517,0.4316401184,-0.9357072711,0.9997931719,0.5147589445,0.3646004498,-0.9013997316,0.9994222522,0.531208992,0.3658517599,-0.9011170268,0.999578476,0.5461229086,0.3666214943,-0.9015157819,0.9994588494,0.4678619802,0.3654580414,-0.8976742029,0.9993476868,0.4526002407,0.3673383594,-0.8981412649,0.999534905,0.4368636012,0.3687931895,-0.8989488482,0.9993690848,0.5689707398,0.4032687843,-0.5901931524,0.9995449185,0.4194196165,0.4087781608,-0.5732428432,0.9993607998,0.5241279006,0.5135091543,-0.8127006292,0.9996381998,0.4630633295,0.5184937119,-0.8070678711,0.9994888306,0.690369308,0.8018101454,-0.3921816945,0.9990073442,0.3321970403,0.7913914919,-0.3734183908,0.9989870191,0.8056829572,1.06028378,-0.3072834909,0.3140907884,0.2099798173,1.033519626,-0.3101796508,0.2514359951,0.91803056,1.551403642,-0.3643727601,0.08156598359,0.1224231943,1.57864511,-0.5193558931,0.05380665511,0.9657143354,1.652612448,-0.3720722497,0.07717014849,0.06794146448,1.697303414,-0.5829824209,0.06092498451,0.9406092763,1.657759428,-0.4596496522,0.1218218282,0.1026148796,1.710700631,-0.6569006443,0.09476063401,0.9158690572,1.631669283,-0.4010575414,0.1327947974,,0.5222441452,0.8927932829,-0.629871046
Straight,0.4961465001,0.4388684928,-0.8306879997,0.9998006225,0.5195162892,0.3702167869,-0.7992457151,0.9994437695,0.5349302888,0.3718420267,-0.7989442945,0.9995906949,0.5504807234,0.3731934428,-0.7994273901,0.9994773269,0.4715820849,0.369289428,-0.7959719896,0.9993772507,0.4556379318,0.370604068,-0.7964633107,0.9995529652,0.4402278364,0.3711933494,-0.7971808314,0.9993976355,0.571231544,0.4081975222,-0.5285707116,0.9995595813,0.4197512269,0.4097760618,-0.5101639032,0.9993864894,0.526669383,0.5230358839,-0.7211166024,0.9996470809,0.465108484,0.5257597566,-0.7155200243,0.9995097518,0.6898123026,0.801828146,-0.3560478389,0.9990450144,0.3306870461,0.7914725542,-0.3352842629,0.9990132451,0.8042181134,1.05644238,-0.1923358887,0.3249965608,0.2102968395,1.034170985,-0.2082598209,0.2548261583,0.9158628583,1.557560921,-0.1834300607,0.08498298377,0.1232648268,1.589535832,-0.3366828859,0.05355797708,0.9653080702,1.660190105,-0.1729097068,0.07946056873,0.06891188771,1.71100378,-0.3907307982,0.06089167669,0.9357034564,1.66736412,-0.2588177621,0.1249716058,0.1046342403,1.729818344,-0.4570086598,0.09477565438,0.9114772677,1.639286518,-0.2177007496,0.1364106536,,0.5232481455,0.8986659321,-0.5092046003
Straight,0.4965009689,0.4377180636,-0.8049832582,0.9998084903,0.519616425,0.3696986735,-0.7731699347,0.9994695187,0.5350671411,0.3712837994,-0.772865355,0.9996048212,0.5503309965,0.3725701571,-0.7733549476,0.9995000362,0.4729319215,0.3686060309,-0.7695276141,0.9994087815,0.4571338296,0.3698286712,-0.7700479031,0.999570787,0.4422348142,0.3703019023,-0.7707327604,0.9994269013,0.5716569424,0.4084034264,-0.5048850179,0.9995759726,0.420376718,0.4091847241,-0.47888726,0.9994109869,0.5268810987,0.5212272406,-0.6955456734,0.9996600151,0.4662872851,0.5234651566,-0.6896519661,0.9995319843,0.68941468,0.801881671,-0.3301264644,0.9990857244,0.3302861154,0.7912888527,-0.3002308905,0.9990369678,0.8021906614,1.054478884,-0.1695929766,0.331946075,0.2110155821,1.034006,-0.1615355909,0.2560247481,0.9105343819,1.559141159,-0.1520776451,0.0878848806,0.1257152408,1.589687467,-0.2875599563,0.05306198075,0.9550126195,1.663693786,-0.1416032016,0.08146321774,0.07306765765,1.711446524,-0.3405146599,0.0604448691,0.9281536937,1.673209786,-0.2242178023,0.1278134137,0.1077125296,1.730539918,-0.405551821,0.09410877526,0.9054271579,1.643878341,-0.1837947667,0.1397358328,,0.5226158391,0.8988881924,-0.4772935212
Straight,0.4960276484,0.4361279905,-0.8086862564,0.9998169541,0.5193699598,0.3680239022,-0.7722469568,0.999496758,0.5352216363,0.3694099784,-0.771958828,0.9996211529,0.5505669117,0.3706443012,-0.772444129,0.9995247722,0.4724673331,0.3673353791,-0.7690517902,0.9994416237,0.4569892287,0.3686985075,-0.769533217,0.9995912313,0.442067802,0.3693652153,-0.7702440023,0.9994591475,0.5720863938,0.4072289765,-0.4944983423,0.9995949268,0.4204049706,0.4088086784,-0.4652367234,0.9994378686,0.5271365643,0.5187051296,-0.693985641,0.999673605,0.4661938548,0.5213236213,-0.6892421842,0.999554038,0.6889725924,0.8010216355,-0.3209718764,0.9991191626,0.3303678632,0.7891406417,-0.2867837846,0.9990603328,0.801266551,1.054090142,-0.1829603016,0.3496706784,0.2140960395,1.031149626,-0.1647607982,0.2619155645,0.9022411108,1.561329484,-0.168628186,0.09065523744,0.1295563281,1.589869738,-0.3220360875,0.05327418447,0.9418768883,1.664546728,-0.1723587513,0.08310181648,0.07813177258,1.712347388,-0.3791157603,0.06072321907,0.9139450192,1.675602198,-0.2553469539,0.1299171299,0.1126149148,1.73167932,-0.4499331415,0.0945090428,0.8928556442,1.646640301,-0.2033810616,0.1420381814,,0.5211116831,0.8983222219,-0.4856093079
Straight,0.4959439635,0.4357582629,-0.7574309707,0.9998165369,0.5191115737,0.3675957024,-0.7212036252,0.9994978309,0.5351229906,0.3690228462,-0.7209146619,0.9996201396,0.5503911376,0.3701514006,-0.7213960886,0.999525547,0.4724356234,0.3668162823,-0.7218846679,0.9994438291,0.4570817053,0.3677761853,-0.7223752141,0.9995904565,0.4422963262,0.3686051667,-0.723079145,0.9994600415,0.5722998381,0.406886071,-0.4453652501,0.9995948672,0.4204584658,0.4086142182,-0.4458450675,0.9994361997,0.5270240903,0.5178074837,-0.647017777,0.9996709824,0.466050148,0.5208559632,-0.6480061412,0.9995548129,0.6893255711,0.8023978472,-0.2839690149,0.9991298318,0.3297556937,0.7892311811,-0.2795849741,0.9990436435,0.7963268161,1.061872721,-0.1486934572,0.352860868,0.2139412463,1.031311989,-0.1132907495,0.2616302073,0.8721990585,1.583558679,-0.1222347394,0.09111750871,0.1297071129,1.591737509,-0.1812894195,0.05162838846,0.9082821012,1.697517872,-0.1128249988,0.08325149119,0.07830862701,1.715809822,-0.227437228,0.05889132619,0.8771017194,1.714305282,-0.1922469288,0.129850924,0.1127749309,1.739049435,-0.2911861837,0.09173095971,0.8574908972,1.679189563,-0.1521548331,0.1420238018,,0.5147013471,0.90481234,-0.4263377789
Straight,0.4969139695,0.4346781373,-0.7568390965,0.9998220205,0.5202949643,0.366832763,-0.7187051177,0.9995207787,0.5361730456,0.3683201373,-0.7184379101,0.9996309876,0.5518351793,0.3694401979,-0.7188850641,0.9995455742,0.4731462002,0.3662157655,-0.7196279764,0.9994711876,0.4575622082,0.3672307432,-0.7200954556,0.9996045828,0.4430161119,0.3680100739,-0.7207899094,0.9994863868,0.5735706091,0.4064485729,-0.4332171381,0.9996081591,0.420814991,0.4082056284,-0.4325008392,0.9994553328,0.5283952355,0.5162820816,-0.6441403627,0.9996813536,0.4672151208,0.519146204,-0.6456555128,0.9995725155,0.6898380518,0.8023579121,-0.2806268334,0.9991428852,0.3309497535,0.7883610129,-0.2718282044,0.9990485311,0.7977285981,1.061438203,-0.1588339508,0.3670954406,0.2138780057,1.029569864,-0.1489804536,0.2676929533,0.881003499,1.583685994,-0.1469220817,0.09311777353,0.1257498711,1.581658125,-0.3152358532,0.05193758011,0.9184629321,1.698041439,-0.1467010677,0.08424595743,0.07399341464,1.705860019,-0.3726986349,0.05915556848,0.8891951442,1.714249134,-0.2284336984,0.1310890764,0.1087850705,1.726991892,-0.4388127327,0.09215355664,0.8685978651,1.67918551,-0.1805332601,0.1437258869,,0.5166872655,0.9028277004,-0.4508409615
Straight,0.4979902804,0.4343258739,-0.7827496529,0.9998273253,0.520475328,0.3664546609,-0.7505965829,0.9995397329,0.5362197757,0.3680408597,-0.7502669692,0.9996394515,0.5517038107,0.3688476682,-0.7507321239,0.9995620847,0.4736163616,0.3656458557,-0.7489803433,0.999493897,0.4578908086,0.3666371107,-0.7494879961,0.9996153712,0.4434569478,0.3674086332,-0.7501853704,0.9995079041,0.573413372,0.4053785205,-0.472045958,0.9996170402,0.420853287,0.4080004692,-0.4647082686,0.9994718432,0.5293390751,0.5155408382,-0.6726161838,0.9996925592,0.4685958028,0.5185317397,-0.6703186631,0.9995911717,0.6898102164,0.8022503257,-0.2956629395,0.9991599321,0.3310466409,0.7881206274,-0.292817086,0.9990670681,0.7972072959,1.060519576,-0.1674311608,0.3630572557,0.2139128149,1.029642105,-0.1442990005,0.2681125104,0.877223134,1.583748579,-0.153191939,0.09449737519,0.1259151399,1.582120061,-0.2853286564,0.05251837894,0.915453434,1.697823882,-0.1478267163,0.08613040298,0.07439925522,1.706378222,-0.3452079892,0.06024819985,0.8864332438,1.713691711,-0.2309562415,0.1338627189,0.1089614481,1.727929235,-0.4084234834,0.09390176088,0.8652794957,1.678887606,-0.1855771244,0.1466126889,,0.5163271349,0.9025420072,-0.4645186568
Straight,0.4988657534,0.4340308607,-0.7473378778,0.9998250008,0.5213962793,0.3659390211,-0.7201241255,0.9995297194,0.5368218422,0.367495954,-0.7198051214,0.9996330142,0.5524053574,0.3684926033,-0.7203611732,0.9995548129,0.4745641351,0.3646214008,-0.7234772444,0.9994849563,0.4585184455,0.3650247753,-0.7239893675,0.9996089339,0.4440671504,0.3657499552,-0.7246604562,0.9994993806,0.5736693144,0.4050043225,-0.4615670145,0.9996113777,0.4208979607,0.4074043632,-0.4558306336,0.9994659424,0.5296984315,0.5150489211,-0.6451647878,0.9996896386,0.4690020978,0.5180843472,-0.6491037011,0.9995908737,0.6896038651,0.8021940589,-0.2838217616,0.9991803169,0.330355823,0.7889719605,-0.2846599221,0.9990745187,0.7946355939,1.057464719,-0.09845246375,0.3588863909,0.2131361216,1.031195521,-0.07347141951,0.2669847608,0.869046092,1.583592057,-0.01012859587,0.09335547686,0.1256864816,1.582445145,-0.06909398735,0.0506769456,0.9049628377,1.697630525,0.01673222519,0.08495498449,0.07466133684,1.706734896,-0.1064868569,0.05806067213,0.8757440448,1.713816166,-0.0645936057,0.1321696341,0.1094584018,1.730232239,-0.1676224917,0.09062717855,0.8558805585,1.679062366,-0.03833674639,0.1447969526,,0.5146853602,0.9022834626,-0.3850616877
Straight,0.4990015626,0.4334023297,-0.7475598454,0.9998275042,0.5219635367,0.3657681346,-0.7202541232,0.9995421171,0.5372991562,0.3671595156,-0.7199276686,0.9996371269,0.5531762838,0.3681082726,-0.7204865813,0.9995663166,0.4749117494,0.3643774986,-0.7228964567,0.9994980693,0.4587852359,0.3644987345,-0.7234078646,0.999612391,0.4444926679,0.365060091,-0.724078536,0.9995111227,0.5744288564,0.4041510224,-0.4612197876,0.9996169209,0.4213668704,0.4065390825,-0.4504156709,0.999471724,0.5299657583,0.5141931176,-0.6452370882,0.9996985197,0.4691486955,0.5174353719,-0.6486954689,0.9996041059,0.6904014349,0.8025883436,-0.2850348353,0.9991906881,0.330743432,0.787659049,-0.2796311677,0.9990800619,0.7929322124,1.06119132,-0.1249046177,0.3545030355,0.2129189968,1.030904531,-0.07668827474,0.2663088143,0.858068645,1.593149424,-0.07429035008,0.09199965745,0.1249790639,1.575341344,-0.1217140406,0.04947094992,0.894246757,1.708637476,-0.05874485895,0.08407115191,0.07438015938,1.69828999,-0.1675577164,0.05687369779,0.8618890047,1.726676226,-0.1385051906,0.1309112757,0.1097080261,1.723857999,-0.2287595272,0.08897288889,0.841606915,1.690515995,-0.1032619327,0.1432859898,,0.5125643191,0.9031593122,-0.4065123456
Straight,0.4991285801,0.4330139458,-0.7615669966,0.9998275042,0.5218998194,0.3649861515,-0.7318016291,0.9995507002,0.537227273,0.365924567,-0.7314935327,0.999637723,0.5530324578,0.3666423857,-0.7320398092,0.9995729327,0.4751303792,0.3639674187,-0.7307090759,0.9995078444,0.4589902461,0.3640845716,-0.7312304378,0.9996134043,0.4448378682,0.3648180962,-0.7319258451,0.9995197654,0.5744917393,0.4023445249,-0.4659993052,0.9996190667,0.4216926694,0.4063776135,-0.4501351714,0.9994729757,0.5301579237,0.5130595565,-0.6565053463,0.9997016191,0.4697420597,0.5171963573,-0.6548259854,0.9996107817,0.6906741261,0.8026448488,-0.2986342013,0.9991877675,0.3309562504,0.7859941125,-0.2788680196,0.999068439,0.7930826545,1.062062979,-0.1709725857,0.35610798,0.2110181153,1.030896068,-0.1166837215,0.2676352262,0.8584614992,1.593395829,-0.1441421807,0.09210270643,0.1237886772,1.575653076,-0.2077455819,0.04886091873,0.8945245743,1.708516955,-0.136256516,0.08410279453,0.07344116271,1.698601961,-0.257961154,0.05615044013,0.8627785444,1.726133347,-0.2141636908,0.1309619099,0.1090178862,1.723955989,-0.3193303943,0.08788108081,0.842736423,1.690235376,-0.1735016853,0.1433949769,,0.512582315,0.9027502605,-0.4407496757
Straight,0.4994513094,0.4328871965,-0.7570481896,0.9998317957,0.5226927996,0.3647117615,-0.7266418338,0.9995656013,0.5379008055,0.3657173514,-0.7263314724,0.999647975,0.5539772511,0.3662344217,-0.726905942,0.9995874763,0.475456953,0.3628799021,-0.7262564898,0.9995234609,0.4591749609,0.362390697,-0.7267625332,0.9996228218,0.4450416565,0.3628550172,-0.7274358869,0.9995329976,0.5750115514,0.40208745,-0.4583362043,0.9996312261,0.4217291474,0.4044943452,-0.4491273761,0.9994847775,0.5304239392,0.512388289,-0.6512795687,0.9997104406,0.4697291851,0.5168617964,-0.6506463289,0.9996230006,0.6906647086,0.8027811646,-0.2939160466,0.9992137551,0.3295470774,0.7880212665,-0.2694165707,0.9990741611,0.7906024456,1.065512538,-0.1500294954,0.3569638431,0.2110509872,1.033528805,-0.07702516019,0.2647171021,0.8558503389,1.600577235,-0.09102227539,0.09128412604,0.1296755821,1.584139347,-0.1218971163,0.04691203684,0.8927487135,1.717645288,-0.07242049277,0.08324027061,0.08155097067,1.70828414,-0.1617012322,0.05397714302,0.8603112102,1.73812747,-0.1508372426,0.1295849681,0.1169518679,1.737270236,-0.2214796096,0.08454540372,0.8402349353,1.701312542,-0.1185544878,0.1419252902,,0.5131717453,0.9059412845,-0.4115941616
Straight,0.4993409514,0.4321552813,-0.7547428012,0.9998356104,0.5229082704,0.364068985,-0.7223188281,0.9995779395,0.5381240249,0.3651050031,-0.722021699,0.999655962,0.5543601513,0.3658264279,-0.7225578427,0.9995983839,0.4754793048,0.3619529009,-0.7221293449,0.9995372891,0.4591882825,0.3612501323,-0.722635746,0.9996316433,0.4450407624,0.3617728353,-0.7233065367,0.9995452762,0.5751947165,0.4019616544,-0.4503835738,0.9996407628,0.4217514396,0.4037108421,-0.4462861121,0.9994968772,0.530388236,0.5119267106,-0.648454845,0.9997167587,0.4696269631,0.5157082677,-0.6483563185,0.9996329546,0.691054225,0.8042948246,-0.2903799117,0.9992225766,0.3291273117,0.7902420759,-0.2696030438,0.9990651011,0.7906858921,1.072331548,-0.152775377,0.3610943556,0.2088116109,1.034839392,-0.1169103011,0.2634059489,0.8564600945,1.608608127,-0.09947457165,0.09230595082,0.1263451129,1.564733386,-0.2054940015,0.04609411582,0.8942599297,1.726722836,-0.08265265077,0.08393454552,0.07885497808,1.708315134,-0.2549312711,0.05316745117,0.8628500104,1.745445609,-0.1626968086,0.1304507256,0.1146910638,1.737144589,-0.3137173951,0.08338516206,0.8424733877,1.708344221,-0.1277961433,0.1429967433,,0.5130462145,0.9066573083,-0.4254375056
Straight,0.4992001057,0.4313508272,-0.754876852,0.9998353124,0.5229085684,0.3628345132,-0.7232169509,0.9995840788,0.5381672382,0.3638988137,-0.7229003906,0.9996551871,0.5544894934,0.3648964465,-0.7234392166,0.9996035099,0.4754066467,0.3604643941,-0.7219347358,0.999542594,0.4591456056,0.3595418632,-0.7224428058,0.9996292591,0.44499892,0.3601664305,-0.7231193185,0.9995493293,0.5754703283,0.4013201296,-0.4535146356,0.9996409416,0.4217773974,0.401906848,-0.4451809525,0.9994934797,0.5302792788,0.5115505457,-0.6487859488,0.9997213483,0.4694914222,0.5145340562,-0.6479516625,0.9996399879,0.6914547682,0.8050836921,-0.2935685813,0.9992206693,0.3289348483,0.7901083827,-0.268394053,0.9990590811,0.789589107,1.079822898,-0.1583075374,0.3563269377,0.2088047713,1.035000563,-0.1090702415,0.2615915239,0.842977345,1.622609615,-0.1219664365,0.0909075439,0.1261403859,1.565930009,-0.1947481334,0.04530470818,0.8796661496,1.742624044,-0.1130690947,0.0831913203,0.07861223072,1.703510165,-0.2458774149,0.05253027752,0.8451187015,1.761312842,-0.1905359477,0.1293523014,0.1146437526,1.731396198,-0.3041441441,0.08255753666,0.8245543242,1.722345471,-0.1495219767,0.1416237056,,0.5100832449,0.9087367613,-0.428934865
Straight,0.4989350438,0.4306890368,-0.8187175989,0.9998379946,0.5227271318,0.3621792197,-0.7920299172,0.9995889068,0.5381389856,0.3632181287,-0.7916496396,0.9996609092,0.554459691,0.3642722964,-0.7923508883,0.9996099472,0.4749832749,0.3600127399,-0.7839152813,0.9995449781,0.4589030147,0.3592228293,-0.7845066786,0.9996312261,0.4445745349,0.3599485755,-0.7851107717,0.9995467067,0.5755113959,0.4009171724,-0.5213948488,0.9996463656,0.4217642844,0.4018324614,-0.4848771691,0.9994886518,0.5301507115,0.5108083487,-0.7107428908,0.9997258186,0.4689068794,0.5138302445,-0.6997892857,0.9996426702,0.6916678548,0.8059850931,-0.3389088511,0.999245882,0.3288335502,0.789925456,-0.2689518332,0.9990521073,0.7896719575,1.080281734,-0.184250325,0.3554503918,0.2095891684,1.03501761,-0.03819385171,0.2606569529,0.8459310532,1.622514725,-0.1422075778,0.09235667437,0.1284430921,1.569557667,-0.08727949858,0.04473698139,0.8832823038,1.742140412,-0.1295981705,0.08462231606,0.08052376658,1.704552412,-0.1291131973,0.05184432864,0.8482313156,1.762455583,-0.2113871276,0.1319341213,0.1172124892,1.735516191,-0.1939250082,0.08165962249,0.8277052641,1.723411918,-0.1696564406,0.1437288076,,0.510915762,0.9090131752,-0.4481162205
Straight,0.4988500476,0.4304682016,-0.7917419672,0.9998384118,0.523095727,0.3618144095,-0.7703586221,0.9995898008,0.5384436846,0.3629427254,-0.7699946761,0.9996635318,0.5549442768,0.364130646,-0.7706574202,0.9996130466,0.4750446677,0.359426111,-0.7607287169,0.9995438457,0.4589243829,0.3584597707,-0.7612544298,0.999630928,0.4445975721,0.3591293395,-0.7618942857,0.9995434284,0.5759464502,0.4007389843,-0.5198813677,0.999650538,0.4218526483,0.4008634686,-0.4752214551,0.9994875193,0.5300661325,0.5103928447,-0.6888692975,0.9997285008,0.4688466489,0.5137165189,-0.6767318249,0.9996450543,0.6936424375,0.8060843349,-0.3379572034,0.9992735386,0.3285072744,0.7903499007,-0.2505777478,0.999062717,0.7897328138,1.080233216,-0.1632707715,0.3580969572,0.2124159634,1.03552115,-0.01603204943,0.2563747168,0.8463476896,1.606521606,-0.1006730795,0.09266228229,0.1399907172,1.57415092,-0.05628882721,0.04323687777,0.8858275414,1.741326451,-0.08063096553,0.08469941467,0.0944352895,1.707377315,-0.09343960881,0.05021066591,0.8513153791,1.761898756,-0.1596927196,0.1318662614,0.130241096,1.73889935,-0.1538911611,0.07914917916,0.8306749463,1.722726941,-0.1266958863,0.1432823688,,0.5133519721,0.9085078619,-0.4221129129
Straight,0.4987810254,0.4303689301,-0.6998860836,0.9998316765,0.5230346322,0.3616175652,-0.6697810888,0.9995719194,0.538398385,0.3628309071,-0.6694768667,0.9996504784,0.5548461676,0.3640057445,-0.6700118184,0.9995949268,0.4750133157,0.35921067,-0.664699614,0.9995260835,0.4588979781,0.3582711518,-0.665235877,0.9996190071,0.4445756078,0.3589658439,-0.6659129858,0.9995274544,0.5759388208,0.4006434083,-0.4178604186,0.9996365905,0.4219047427,0.400785923,-0.395224005,0.9994735718,0.5300133228,0.5096157789,-0.6008440852,0.9997156858,0.4687744975,0.5133032203,-0.5938442945,0.9996326566,0.6930536628,0.8057466149,-0.2663153112,0.9992547035,0.3285157681,0.7896627784,-0.2337067425,0.9990441203,0.7897055745,1.080182195,-0.1365233511,0.3532646596,0.2125479877,1.031946421,-0.02046359889,0.2532285452,0.8505468369,1.604926586,-0.08928323537,0.09085185081,0.1380631775,1.575099468,-0.06484283507,0.04228479043,0.8905967474,1.732252002,-0.07320066541,0.08322052658,0.09053739905,1.70744133,-0.1035792455,0.04928204045,0.8570013046,1.751646638,-0.1496475339,0.1295868903,0.1274110973,1.738973141,-0.155297488,0.07774110883,0.8362419009,1.714249134,-0.116642572,0.1408634335,,0.5138363615,0.9068975205,-0.3691945326
Straight,0.4989683032,0.4302730858,-0.7233650088,0.9998322129,0.5234287381,0.3613999784,-0.6920851469,0.9995806813,0.5386816263,0.3625226617,-0.6917817593,0.9996499419,0.5551866293,0.3637902439,-0.6922504902,0.9996000528,0.4754217267,0.3591575623,-0.6885996461,0.9995371103,0.4591045976,0.3584206402,-0.6891272068,0.9996212721,0.4448716044,0.3591126204,-0.6898897886,0.9995390773,0.5762989521,0.4009766877,-0.4269727767,0.9996352196,0.4225051403,0.4008684754,-0.411436379,0.9994792938,0.5300367475,0.5100064874,-0.6187856197,0.9997195601,0.4689083099,0.5134475231,-0.6135787964,0.9996413589,0.6930371523,0.8052264452,-0.2704178691,0.9992360473,0.3304565251,0.7866851091,-0.2543263435,0.999055624,0.7893735766,1.079410076,-0.1476144493,0.3489653468,0.2124667913,1.030702353,-0.1021705717,0.2575414479,0.8605449796,1.595885158,-0.1225655824,0.09000033885,0.1329195052,1.567463875,-0.1991605014,0.04334543273,0.9022185206,1.711492896,-0.1144163981,0.08283717185,0.0839368552,1.69263792,-0.2509043813,0.05059633777,0.8722985983,1.723428845,-0.1940629184,0.129133448,0.1201278195,1.718061328,-0.3108449578,0.07975465804,0.8502637744,1.689869881,-0.1534616947,0.1405996829,,0.515502567,0.900947266,-0.411719013
Straight,0.498931706,0.4301096499,-0.6455407739,0.9998350143,0.5234335661,0.3615219891,-0.6143180132,0.9995883703,0.5386673808,0.362593323,-0.6139194965,0.9996544123,0.5551458597,0.3639101684,-0.6144798994,0.999607563,0.4757777154,0.3593259454,-0.6070960164,0.9995453954,0.4594256878,0.3587103486,-0.6076343656,0.999625802,0.4454515874,0.3593256176,-0.6082513928,0.9995476604,0.5763161182,0.401347816,-0.3627581,0.9996405244,0.4237339497,0.4008349478,-0.332237184,0.999484539,0.5299925804,0.5098701715,-0.5485112071,0.9997265339,0.4689379632,0.5131371617,-0.538849771,0.9996501803,0.6932129264,0.8054252863,-0.2359323949,0.9992572069,0.3307929635,0.7867473364,-0.1843648553,0.9990693927,0.7901598811,1.079307318,-0.1447687,0.3496899605,0.2126736194,1.030872464,-0.03862145543,0.2557852268,0.8728209734,1.595089197,-0.1337555945,0.09179417789,0.1329909712,1.569047928,-0.1480412781,0.04315633699,0.9164344668,1.708219886,-0.1318596601,0.08457516879,0.08382482827,1.694331169,-0.2009651661,0.05053739995,0.8835427165,1.72088933,-0.2076276094,0.1318611354,0.1205085665,1.72117722,-0.2611655593,0.07979022712,0.8611949682,1.687846541,-0.1637037992,0.1433108002,,0.5179077726,0.9008927643,-0.3611091951
Straight,0.4989747405,0.4299610853,-0.6771208644,0.9998390079,0.5236274004,0.3614398539,-0.6468510032,0.9996026754,0.5388371944,0.3624204993,-0.6464828253,0.9996606112,0.5553550124,0.3637447655,-0.6470364332,0.9996211529,0.4759224057,0.3595091999,-0.6402745843,0.9995621443,0.4594973028,0.3591965139,-0.6408083439,0.9996339083,0.4455385804,0.3599509001,-0.6414549947,0.9995646477,0.5765331984,0.401455313,-0.3867107034,0.999646008,0.4239566922,0.4015818834,-0.3616398275,0.9994933605,0.5301049352,0.5097020268,-0.5770583749,0.9997363091,0.4689738154,0.5129613876,-0.5678902864,0.9996634722,0.693194747,0.8053973913,-0.2397691756,0.9992671609,0.3307393193,0.7864382267,-0.1978642344,0.9990808964,0.7942630053,1.079235435,-0.1318789721,0.3515560925,0.2152057886,1.032774925,-0.04701304808,0.2535685301,0.8814796209,1.594434261,-0.1337255239,0.09249240905,0.1368818581,1.578377247,-0.1488167942,0.04239916429,0.9266129732,1.704994082,-0.1318895966,0.08510071039,0.08706983179,1.703641415,-0.2030921727,0.04981776327,0.8922435045,1.71890223,-0.2091427743,0.1329497993,0.1251815557,1.733614445,-0.2662882805,0.0788699016,0.8692297935,1.686492801,-0.1638077945,0.1441256106,,0.5204283307,0.9021011767,-0.3775734822
Straight,0.4997068942,0.4294327199,-0.665157795,0.9998466969,0.5240554214,0.3610243797,-0.6274313331,0.9996202588,0.5391672254,0.3618804216,-0.6270605326,0.9996750951,0.5558017492,0.363185674,-0.6275935769,0.9996376038,0.4764114022,0.3594457507,-0.6286571026,0.9995839,0.4597899318,0.3591270745,-0.629175365,0.9996519685,0.4458500743,0.3599589169,-0.6298185587,0.9995871782,0.5765391588,0.4011470079,-0.348589927,0.9996611476,0.4239697456,0.4025612772,-0.3574320376,0.9995204806,0.5311585665,0.5091028214,-0.5598479509,0.9997466207,0.469897747,0.5126886368,-0.5606498718,0.9996797442,0.6889618039,0.8045124412,-0.194423452,0.9992929697,0.3297646046,0.786750555,-0.2080275118,0.9991050363,0.7951165438,1.05969131,-0.07200259715,0.3577978015,0.2151813209,1.034645557,-0.0935459286,0.2521713376,0.9265027046,1.517578602,-0.07084328681,0.09853087366,0.1368934065,1.586909533,-0.2385847569,0.04310020059,0.9780419469,1.604887605,-0.06473456323,0.09020745754,0.08738966286,1.712054729,-0.2959837615,0.05104533583,0.9532462955,1.611174703,-0.1464619786,0.1402872056,0.124978818,1.737249732,-0.3604124188,0.08076414466,0.927669704,1.588981748,-0.1047438756,0.152207464,,0.5302770331,0.8847268725,-0.3686899174
Straight,0.5002669096,0.4294848442,-0.679443121,0.9998497367,0.5248550177,0.3611887991,-0.6442316175,0.9996247888,0.5397735834,0.3620639443,-0.6438602805,0.9996799827,0.5565138459,0.3635505736,-0.6444149017,0.9996432662,0.4775124192,0.3595711589,-0.6430795789,0.9995900393,0.4605871737,0.3593509197,-0.6436004043,0.9996582866,0.4467698038,0.3601145446,-0.6442559958,0.9995942712,0.5768126249,0.4017296731,-0.3708438873,0.9996675849,0.4243937433,0.4026645124,-0.3622473776,0.9995287061,0.5314565897,0.5094600916,-0.5746434927,0.9997511506,0.4702880979,0.5125664473,-0.5725225806,0.9996863008,0.6875180602,0.8044740558,-0.2157232016,0.9993110895,0.3284918368,0.7867355347,-0.2150967121,0.9991132617,0.7928251028,1.045385242,-0.08766697347,0.361823678,0.21519427,1.035482407,-0.09320794046,0.2494607568,0.9227560759,1.530218005,-0.07770501822,0.1009535939,0.1454382241,1.586344957,-0.2300544679,0.04325140268,0.9740726352,1.625912189,-0.07030689716,0.09257303923,0.09852683544,1.710572004,-0.2850617766,0.05162851885,0.9469982982,1.634684443,-0.1488173455,0.1441015601,0.1357267201,1.735779643,-0.3508560061,0.08190411329,0.9218192101,1.608309984,-0.1086781472,0.1561170816,,0.5308453217,0.8875292716,-0.3775598966
Straight,0.5006623268,0.4301691353,-0.7928224802,0.9998545647,0.5259475112,0.3620589674,-0.7565010786,0.9996430278,0.5407522917,0.3629851043,-0.7561444044,0.9996880293,0.5576323867,0.36495924,-0.7566684484,0.9996590018,0.4785400033,0.3600047231,-0.7556058168,0.9996107817,0.4613173008,0.3597627878,-0.7560985088,0.9996689558,0.4476403594,0.360355854,-0.7568281293,0.9996150136,0.5774855614,0.403156817,-0.4568808675,0.999676466,0.4255868793,0.4026665688,-0.4545626044,0.9995452166,0.531602025,0.5109482408,-0.6765453219,0.9997621179,0.4705141485,0.5130492449,-0.6751170158,0.9997019172,0.6833441257,0.8042455912,-0.2665703297,0.9993056655,0.3286683857,0.7836263776,-0.2772890925,0.9991275072,0.7927116156,1.043680787,-0.1292737722,0.3612167537,0.2152246535,1.035485983,-0.1215184331,0.2505847216,0.9017998576,1.538355112,-0.1524784565,0.1007617563,0.1459035426,1.582013845,-0.2443157881,0.04377653822,0.9464899302,1.638267994,-0.1584147364,0.09255885333,0.09897893667,1.705195665,-0.3025247753,0.05263260007,0.9179278612,1.649657726,-0.2381513119,0.1440692395,0.1351405829,1.728298306,-0.3736943603,0.08349002153,0.8939037323,1.621237874,-0.1852755845,0.1563798189,,0.5262624554,0.8890991793,-0.4565127871
Straight,0.5026481152,0.4303979576,-0.7894665003,0.9998570681,0.5273931026,0.3626493216,-0.7403099537,0.9996546507,0.5419117212,0.3635608554,-0.7398846149,0.9996894598,0.5586100817,0.3658131957,-0.7404001951,0.9996688366,0.4809163511,0.3602940738,-0.7495202422,0.9996250868,0.4636306763,0.3599131405,-0.749874115,0.999673903,0.4497601092,0.3604271412,-0.7508487701,0.9996311069,0.5775770545,0.4037657082,-0.4282771051,0.9996765852,0.4270134568,0.4026385844,-0.4514394403,0.9995545745,0.5322809815,0.5114192367,-0.6641438007,0.9997702837,0.472332418,0.5132312179,-0.6734312773,0.9997153282,0.681959033,0.804243207,-0.2524544299,0.9992954731,0.3286702633,0.7831754684,-0.2734901309,0.9991446137,0.7929515839,1.044758439,-0.1292273104,0.3627291918,0.2157453299,1.035968781,-0.1180320606,0.2544014752,0.8987377882,1.541907191,-0.1751091778,0.1005727574,0.1477298737,1.583754659,-0.22750552,0.04434550181,0.9431519508,1.644990921,-0.1879305542,0.09266334772,0.1018807516,1.707434893,-0.2851533592,0.05361192301,0.9132447243,1.657869339,-0.268266201,0.1442219317,0.1381307393,1.729383826,-0.3540256619,0.08512984961,0.8883064389,1.628386378,-0.2096091062,0.156299606,,0.5265719339,0.8907265243,-0.4526545239
Straight,0.5043516755,0.4300132692,-0.7583736777,0.9998582006,0.5284621716,0.3625724912,-0.7106845975,0.9996543527,0.542698741,0.3634876609,-0.7103147507,0.9996886849,0.5591543913,0.3657485843,-0.7108544707,0.999668479,0.4827865064,0.3598753512,-0.7272239923,0.999627471,0.4656555057,0.3592543602,-0.727522552,0.9996766448,0.4514419436,0.3593272865,-0.7285507321,0.9996366501,0.5775008798,0.4038406312,-0.4126655161,0.999676168,0.4276069105,0.4009150267,-0.4418581128,0.999559164,0.5326842666,0.5108664632,-0.6404122114,0.9997692704,0.4733136594,0.5111936927,-0.6631532907,0.9997182488,0.6770339012,0.8042557836,-0.2516945302,0.9992906451,0.3266277611,0.7832655907,-0.2801360488,0.9991542101,0.7891975641,1.044264674,-0.1245665774,0.3700125217,0.216599822,1.038030028,-0.1228016466,0.2569158971,0.8940752745,1.546208024,-0.1538243592,0.09947134554,0.1424089521,1.577374935,-0.2144512832,0.04420075193,0.938367486,1.650038481,-0.1616397798,0.0915299654,0.1016920209,1.715095162,-0.2635659873,0.05343031138,0.9096645117,1.662849903,-0.2372802794,0.1423488408,0.1376311481,1.739170313,-0.3345157504,0.08467694372,0.8848144412,1.632977843,-0.1876781583,0.1546107531,,0.5256258879,0.8918466162,-0.4347167411
Straight,0.5056535006,0.4291190207,-0.7388252616,0.9998570085,0.5292034745,0.3615596294,-0.6892086267,0.9996515512,0.5432952642,0.3628326058,-0.6888775826,0.9996829629,0.5595098734,0.3652278185,-0.6893804073,0.9996640682,0.4838820994,0.3588106036,-0.7035045624,0.9996294379,0.4667042196,0.3580885231,-0.7038369179,0.9996773005,0.4523029923,0.3579304516,-0.7048008442,0.9996427298,0.5772538781,0.4035300314,-0.3866365552,0.9996685982,0.4280756116,0.3998260796,-0.4228442609,0.9995641708,0.5330239534,0.5096056461,-0.620354414,0.9997650981,0.4743654132,0.5094780326,-0.6413730383,0.9997205138,0.6734098196,0.8040040731,-0.2348970175,0.9992837906,0.3265990615,0.7784588337,-0.2759799361,0.9991716743,0.7863596082,1.042548895,-0.124455452,0.3798379004,0.2162158787,1.036846161,-0.152975291,0.268240422,0.8924048543,1.526121736,-0.1668848097,0.09914375842,0.144113183,1.57787168,-0.2772684693,0.04567760229,0.9361078143,1.625431538,-0.1769244224,0.09083237499,0.102166079,1.714014173,-0.3360866904,0.05462327227,0.9072440267,1.631221533,-0.2564513683,0.1409554929,0.137819767,1.735703826,-0.4057145119,0.08619964868,0.8832792044,1.603254676,-0.2022695541,0.1531572342,,0.5254086171,0.8859766166,-0.4363431815
Straight,0.5064268112,0.4290832579,-0.7146003842,0.9998543859,0.5296323895,0.3615953624,-0.6678748131,0.999646306,0.5436547399,0.3628360629,-0.6675425768,0.9996762872,0.5597242117,0.3652819693,-0.6680426598,0.9996564388,0.4845709801,0.3588782847,-0.679439187,0.9996268749,0.4673493505,0.3581309021,-0.6798535585,0.9996749759,0.4528521895,0.357988745,-0.6807313561,0.9996433854,0.5770267248,0.4036940634,-0.373072207,0.9996622801,0.4285879731,0.3998712301,-0.4139398932,0.9995663762,0.533206284,0.5096681714,-0.600790441,0.9997600913,0.4749000072,0.5094638467,-0.61849159,0.9997204542,0.6722556949,0.8054087162,-0.232298255,0.9992753267,0.3256519437,0.7777113914,-0.2735950351,0.9991779923,0.782595098,1.04065764,-0.1267528832,0.3861708939,0.2132529914,1.034880996,-0.1662981063,0.2753445804,0.8745492697,1.527624965,-0.1673526019,0.0980758965,0.1340305954,1.579389453,-0.2901422083,0.04635671526,0.9144903421,1.630082369,-0.1743215173,0.08971359581,0.08723524958,1.713942409,-0.347224474,0.05530666187,0.8852322698,1.632714391,-0.2515441179,0.1389835924,0.1232411265,1.735501289,-0.4142231345,0.08707088977,0.8629463315,1.60411942,-0.2008830756,0.1512362659,,0.5197005716,0.8862965879,-0.427682458
Straight,0.5062514544,0.4292038679,-0.6875504255,0.9998540282,0.5296187401,0.3621028066,-0.6442059278,0.9996465445,0.5436231494,0.3634052575,-0.6438618898,0.999674201,0.5597198009,0.3661947846,-0.6444023848,0.9996566772,0.4845423698,0.359015882,-0.6522714496,0.9996289611,0.4673114419,0.3582623005,-0.6527119875,0.9996756315,0.4528384805,0.3580784202,-0.6534913778,0.9996474385,0.5767408609,0.4050947726,-0.3556781113,0.9996617436,0.428583771,0.4000177979,-0.390905261,0.9995694757,0.5329501033,0.5101128221,-0.5777622461,0.9997608662,0.4745004177,0.5095289946,-0.5896168351,0.9997239709,0.6712085009,0.8079044819,-0.2148748338,0.9992788434,0.3240385652,0.7778505683,-0.2551117539,0.9991771579,0.7824525237,1.038217187,-0.09951509535,0.3930979073,0.2126885951,1.034442425,-0.1421221942,0.2759104967,0.8753551245,1.526102304,-0.1191964149,0.09824503213,0.1329620183,1.580357671,-0.2612977624,0.04573951289,0.9153553843,1.627465367,-0.1230856031,0.08947005868,0.0854794234,1.713790178,-0.3178657591,0.05463383347,0.8858808279,1.632138371,-0.1999287903,0.1384615302,0.1212454662,1.735451818,-0.3907444179,0.08602177352,0.8638007045,1.603767872,-0.1517948061,0.1507238001,,0.5194158056,0.886295725,-0.3985452422
Straight,0.5064228773,0.4287162721,-0.6845074892,0.9998466969,0.5296263099,0.361728549,-0.6416755915,0.9996338487,0.5436183214,0.3631493449,-0.6413325667,0.9996575117,0.5597063303,0.3659701347,-0.6418677568,0.9996432662,0.4846426845,0.3584612608,-0.650236547,0.9996198416,0.4674755633,0.3575959504,-0.6506950855,0.9996643662,0.4529495239,0.3572486043,-0.6514645219,0.9996418953,0.5755901337,0.4049507082,-0.3535167575,0.9996447563,0.4282245636,0.3994927704,-0.3919835985,0.999558568,0.5329550505,0.5095995665,-0.5746275187,0.9997514486,0.4744858146,0.5084073544,-0.5866544843,0.9997195005,0.6703180671,0.8077978492,-0.2099319696,0.9992565513,0.3195032477,0.7780923843,-0.2622208893,0.9991544485,0.7790111303,1.03862083,-0.0998634249,0.3952451944,0.2084475458,1.044548273,-0.1676100641,0.2753126323,0.8687247038,1.535835624,-0.1203566939,0.09683524072,0.1330955923,1.593653917,-0.2963606119,0.04501212016,0.9083417058,1.641057968,-0.1274144351,0.08806468546,0.08569133282,1.722861767,-0.3573286533,0.05389734358,0.87869519,1.648717761,-0.2051027268,0.1361774206,0.1213293821,1.744730234,-0.4248598218,0.08491179347,0.8566733599,1.618743181,-0.1541264057,0.1481858045,,0.5175240196,0.8904536502,-0.4042608006
Straight,0.5059967637,0.4285892844,-0.7227219343,0.9998514652,0.5285320282,0.3617009819,-0.6774448156,0.9996427298,0.5422452092,0.3631112278,-0.6771240234,0.9996650219,0.5581754446,0.3659316301,-0.6776152849,0.9996509552,0.4841211736,0.358494699,-0.6850584745,0.9996317625,0.4670489728,0.3577148914,-0.685452342,0.9996746778,0.452684164,0.3575465679,-0.6862667203,0.9996547699,0.5737403631,0.4049285352,-0.3740444481,0.9996525049,0.4277545512,0.4004310071,-0.4111804068,0.9995732307,0.5326605439,0.5093428493,-0.6085162163,0.9997548461,0.474439472,0.5083144307,-0.6184241176,0.9997263551,0.6682531834,0.8075944781,-0.231836766,0.9992578626,0.3202310205,0.7781544328,-0.2812629938,0.999171555,0.7797707319,1.038729906,-0.1549584419,0.4048594236,0.2099423409,1.040900111,-0.2030148506,0.2824320495,0.8857662082,1.523654342,-0.2290459573,0.09943880141,0.1306118071,1.571854115,-0.3507374227,0.04763633385,0.9314244986,1.620738506,-0.2436161339,0.09048317373,0.0840171501,1.723867774,-0.4128235281,0.05689944327,0.9045848846,1.625701904,-0.3223117888,0.1394607723,0.1189695224,1.744828343,-0.4836467206,0.08917579055,0.8805576563,1.60052371,-0.265363127,0.1519595832,,0.5209785314,0.8860297149,-0.4546575689
Straight,0.5058797002,0.4287556112,-0.6831063628,0.9998546243,0.5283279419,0.362102598,-0.6390936375,0.999646306,0.5419332981,0.3634461761,-0.6387969255,0.9996703863,0.5578381419,0.366286844,-0.6392943263,0.9996548295,0.4840869009,0.3588777781,-0.6481240392,0.9996381402,0.4670208097,0.3580595553,-0.6485103369,0.9996821284,0.4526728094,0.3579482734,-0.649277091,0.9996621609,0.572932303,0.4053760469,-0.3450360596,0.9996586442,0.4277506769,0.4008736014,-0.3874606788,0.999583602,0.5325011015,0.509965241,-0.5717073679,0.9997573495,0.4744277596,0.5091128945,-0.5835179687,0.9997306466,0.6683021188,0.8076623082,-0.206669122,0.9992719889,0.3200339973,0.7862476707,-0.2608626485,0.9991840124,0.7831981182,1.038602591,-0.108520925,0.4111379385,0.2120541334,1.051610112,-0.1984656155,0.2826941609,0.8995067477,1.52047801,-0.1606548578,0.1013578922,0.139570415,1.578573108,-0.3181430101,0.04799405113,0.9465972185,1.616036654,-0.170346871,0.09206260741,0.09852258861,1.734015226,-0.3780748844,0.05748479441,0.9202919006,1.622569919,-0.2457342148,0.1416390687,0.1332322955,1.754419804,-0.4492541254,0.08993561566,0.895957768,1.59801352,-0.1953497678,0.1545506269,,0.5255744884,0.8876833428,-0.4148182198
